time,X[s],Avanti sensor 2: ACC.X 2,Avanti sensor 2: ACC.Y 2,Avanti sensor 2: ACC.Z 2,Avanti sensor 2: GYRO.X 2,Avanti sensor 2: GYRO.Y 2,Avanti sensor 2: GYRO.Z 2
12:01.0,0.14175,0.421875,-1.03125,0.0092773,-51.34146,13.17073,-5.670732
12:01.0,0.1485,0.4995117,-0.9614258,-0.1572266,-50,4.939024,-8.597561
12:01.0,0.15525,0.4516602,-0.9550781,-0.3061523,-52.7439,2.317073,-15.60976
12:01.0,0.162,0.3022461,-0.9838867,-0.371582,-51.21951,0.9146342,-23.96342
12:01.0,0.16875,0.109375,-1.000977,-0.3588867,-43.90244,3.780488,-30.36585
12:01.0,0.1755,-0.074707,-0.9819336,-0.3642578,-34.02439,3.47561,-32.5
12:01.0,0.18225,-0.2128906,-0.9770508,-0.3671875,-27.43903,-4.329268,-30.67073
12:01.0,0.189,-0.3310547,-0.9916992,-0.3442383,-25.73171,-7.865854,-26.76829
12:01.0,0.19575,-0.4272461,-1.01709,-0.3554688,-25.36585,-11.95122,-22.0122
12:01.0,0.2025,-0.4501953,-1.026855,-0.3720703,-26.09756,-21.58537,-17.07317
12:01.0,0.20925,-0.4321289,-1.052734,-0.3710938,-22.43902,-36.82927,-11.89024
12:01.0,0.216,-0.3417969,-1.04541,-0.3398438,-14.5122,-53.47561,-7.987805
12:01.0,0.22275,-0.2290039,-0.9931641,-0.3291016,-10.91463,-59.69512,-5.731708
12:01.0,0.2295,-0.1347656,-0.9638672,-0.3310547,-10.18293,-55.85366,-4.573171
12:01.0,0.23625,-0.0429688,-0.9609375,-0.3525391,-10.36585,-52.31707,-4.634146
12:01.0,0.243,0.0361328,-0.9716797,-0.3417969,-11.34146,-43.59756,-5.54878
12:01.0,0.24975,0.1064453,-0.987793,-0.3256836,-11.95122,-35.30488,-6.219512
12:01.0,0.2565,0.1855469,-1.001953,-0.331543,-13.71951,-26.03659,-6.280488
12:01.0,0.26325,0.2290039,-1.015137,-0.3291016,-15.06098,-15.12195,-6.402439
12:01.0,0.27,0.237793,-1.01123,-0.3222656,-15.06098,-6.097561,-6.646342
12:01.0,0.27675,0.2163086,-0.9936523,-0.3046875,-13.41463,2.317073,-6.829268
12:01.0,0.2835,0.1557617,-0.965332,-0.2993164,-10.36585,11.64634,-7.743903
12:01.0,0.29025,0.0878906,-0.9423828,-0.3178711,-9.390244,18.59756,-8.597561
12:01.0,0.297,0.0214844,-0.9404297,-0.324707,-10.30488,22.07317,-9.695122
12:01.0,0.30375,-0.0048828,-0.940918,-0.3217773,-11.40244,23.47561,-10.67073
12:01.0,0.3105,-0.0576172,-0.9487305,-0.3242188,-13.04878,25,-11.70732
12:01.0,0.31725,-0.1088867,-0.956543,-0.3393555,-14.7561,25.79268,-12.0122
12:01.0,0.324,-0.15625,-0.9692383,-0.3383789,-15.67073,24.14634,-11.70732
12:01.0,0.33075,-0.1948242,-0.9765625,-0.3334961,-16.52439,22.68293,-11.21951
12:01.0,0.3375,-0.2275391,-0.980957,-0.3251953,-17.37805,22.37805,-10.67073
12:01.0,0.34425,-0.2529297,-0.9956055,-0.3198242,-19.5122,24.08537,-9.390244
12:01.0,0.351,-0.2587891,-1.009766,-0.3037109,-21.52439,27.2561,-7.439024
12:01.0,0.35775,-0.2470703,-1.016602,-0.265625,-22.80488,29.45122,-5.304878
12:01.0,0.3645,-0.21875,-1.013184,-0.2348633,-23.90244,28.29268,-3.170732
12:01.0,0.37125,-0.1723633,-1.026855,-0.215332,-23.78049,24.69512,-1.95122
12:01.0,0.378,-0.1201172,-1.043457,-0.2084961,-21.89024,24.5122,-1.402439
12:01.0,0.38475,-0.0678711,-1.054199,-0.1728516,-20.4878,28.65854,-1.036585
12:01.0,0.3915,-0.0307617,-1.062012,-0.1293945,-18.04878,34.63415,-0.4878049
12:01.0,0.39825,-0.0161133,-1.062988,-0.1123047,-15.85366,41.52439,0.4878049
12:01.0,0.405,-0.0024414,-1.069336,-0.0864258,-14.02439,50.54878,1.707317
12:01.0,0.41175,-0.0053711,-1.069336,-0.0737305,-12.43902,59.63415,3.170732
12:01.0,0.4185,-0.012207,-1.072754,-0.1064453,-10.2439,66.21951,3.963415
12:01.0,0.42525,-0.027832,-1.077148,-0.1508789,-9.146341,72.68293,2.926829
12:01.0,0.432,-0.0771484,-1.083984,-0.1645508,-9.146341,74.81708,2.195122
12:01.0,0.43875,-0.137207,-1.094238,-0.1826172,-8.292683,77.98781,1.707317
12:01.0,0.4455,-0.1875,-1.103027,-0.1948242,-6.585366,80.36585,2.073171
12:01.0,0.45225,-0.2197266,-1.097656,-0.2148438,-3.780488,79.57317,3.170732
12:01.0,0.459,-0.2285156,-1.060547,-0.2509766,-0.0609756,77.68293,3.841464
12:01.0,0.46575,-0.2241211,-1.006348,-0.3076172,3.292683,76.34147,4.02439
12:01.0,0.4725,-0.1987305,-0.9570313,-0.355957,4.573171,73.35366,3.719512
12:01.0,0.47925,-0.1645508,-0.9223633,-0.3828125,3.902439,69.7561,2.926829
12:01.1,0.486,-0.1342773,-0.9121094,-0.3999023,2.865854,68.17073,1.890244
12:01.1,0.49275,-0.1152344,-0.9111328,-0.4208984,2.621951,68.65854,0.9146342
12:01.1,0.4995,-0.1074219,-0.9091797,-0.4331055,1.707317,67.31708,-0.6707317
12:01.1,0.50625,-0.0966797,-0.9116211,-0.4516602,-0.0609756,63.17073,-2.439024
12:01.1,0.513,-0.1005859,-0.9174805,-0.4580078,-2.073171,57.37805,-3.841464
12:01.1,0.51975,-0.1088867,-0.9350586,-0.456543,-3.536585,50.36586,-4.756098
12:01.1,0.5265,-0.1118164,-0.9511719,-0.4423828,-3.47561,42.80488,-4.756098
12:01.1,0.53325,-0.0898438,-0.9667969,-0.4277344,-3.04878,39.20732,-4.45122
12:01.1,0.54,-0.0551758,-0.9780273,-0.4082031,-2.743902,31.40244,-3.780488
12:01.1,0.54675,-0.0117188,-0.980957,-0.3759766,-2.560976,23.10976,-3.658537
12:01.1,0.5535,0.015625,-0.9750977,-0.3500977,-2.134146,16.58537,-4.085366
12:01.1,0.56025,0.0390625,-0.9633789,-0.328125,-1.890244,12.62195,-4.817073
12:01.1,0.567,0.0454102,-0.9477539,-0.3208008,-2.012195,10.42683,-5.853659
12:01.1,0.57375,0.0415039,-0.9438477,-0.3120117,-2.5,9.878049,-7.195122
12:01.1,0.5805,0.0288086,-0.9526367,-0.3115234,-3.231707,10.97561,-8.231708
12:01.1,0.58725,0.0209961,-0.9692383,-0.3178711,-3.841464,14.02439,-8.658537
12:01.1,0.594,0.0195313,-0.9775391,-0.3276367,-3.719512,18.17073,-8.841464
12:01.1,0.60075,0.0175781,-0.9863281,-0.3417969,-3.841464,22.37805,-8.963415
12:01.1,0.6075,0.0200195,-0.9833984,-0.3510742,-4.45122,25.2439,-8.597561
12:01.1,0.61425,0.0253906,-0.9648438,-0.355957,-5.243903,27.0122,-8.536586
12:01.1,0.621,0.0351563,-0.9589844,-0.362793,-5.670732,27.5,-8.536586
12:01.1,0.62775,0.0454102,-0.9570313,-0.3691406,-5.914634,27.86585,-8.658537
12:01.1,0.6345,0.0527344,-0.9536133,-0.3730469,-6.463415,27.2561,-8.902439
12:01.1,0.64125,0.0576172,-0.9599609,-0.3730469,-7.439024,25.54878,-8.902439
12:01.1,0.648,0.0532227,-0.96875,-0.3730469,-8.109756,22.7439,-8.780488
12:01.1,0.65475,0.0463867,-0.9760742,-0.3725586,-8.170732,20.67073,-8.719512
12:01.1,0.6615,0.0478516,-0.9804688,-0.3681641,-8.170732,18.78049,-8.231708
12:01.1,0.66825,0.0541992,-0.9794922,-0.3618164,-8.170732,17.9878,-7.743903
12:01.1,0.675,0.0595703,-0.9790039,-0.3535156,-7.926829,18.96342,-7.378049
12:01.1,0.68175,0.0576172,-0.9785156,-0.3457031,-7.560976,20.60976,-7.621952
12:01.1,0.6885,0.0415039,-0.9755859,-0.3505859,-6.585366,22.43902,-8.109756
12:01.1,0.69525,0.034668,-0.9716797,-0.3574219,-6.585366,23.59756,-8.597561
12:01.1,0.702,0.0175781,-0.9750977,-0.3666992,-7.195122,23.71951,-8.780488
12:01.1,0.70875,0.0014648,-0.9785156,-0.3632813,-7.804878,22.43902,-8.841464
12:01.1,0.7155,-0.0185547,-0.9868164,-0.3564453,-8.109756,20.79268,-8.902439
12:01.1,0.72225,-0.0385742,-0.9936523,-0.3569336,-7.926829,19.14634,-8.658537
12:01.1,0.729,-0.0551758,-0.9970703,-0.3686523,-7.804878,18.35366,-8.47561
12:01.1,0.73575,-0.0649414,-1.001465,-0.3764648,-7.073171,16.95122,-7.926829
12:01.1,0.7425,-0.0610352,-1.004883,-0.3867188,-5.97561,15.48781,-7.195122
12:01.1,0.74925,-0.0527344,-1.000977,-0.3828125,-4.939024,13.35366,-5.54878
12:01.1,0.756,-0.0239258,-0.9936523,-0.3759766,-3.780488,11.58537,-4.02439
12:01.1,0.76275,0.0048828,-0.9785156,-0.3623047,-2.560976,10.79268,-3.04878
12:01.1,0.7695,0.0322266,-0.972168,-0.3496094,-2.317073,10.97561,-2.5
12:01.1,0.77625,0.0537109,-0.972168,-0.3305664,-2.804878,12.2561,-2.378049
12:01.1,0.783,0.065918,-0.9775391,-0.3203125,-3.292683,14.02439,-2.560976
12:01.1,0.78975,0.0673828,-0.980957,-0.3095703,-3.414634,16.34146,-2.743902
12:01.1,0.7965,0.0732422,-0.9838867,-0.2988281,-3.536585,18.84146,-2.560976
12:01.1,0.80325,0.0786133,-0.987793,-0.2958984,-3.658537,22.13415,-2.439024
12:01.1,0.81,0.0766602,-0.9882813,-0.2963867,-4.02439,26.03659,-2.378049
12:01.1,0.81675,0.0722656,-0.9873047,-0.3032227,-4.573171,28.84146,-2.439024
12:01.1,0.8235,0.0629883,-0.9907227,-0.3071289,-4.817073,29.81707,-2.560976
12:01.1,0.83025,0.0415039,-0.9921875,-0.3120117,-5.060976,31.21951,-2.865854
12:01.1,0.837,0.0175781,-0.9902344,-0.3251953,-4.817073,31.09756,-3.231707
12:01.1,0.84375,-0.0053711,-0.9780273,-0.3300781,-5.54878,29.87805,-3.780488
12:01.1,0.8505,-0.0297852,-0.9667969,-0.3383789,-5.914634,28.04878,-4.085366
12:01.1,0.85725,-0.0449219,-0.9584961,-0.3447266,-6.280488,25.06098,-4.695122
12:01.1,0.864,-0.0507813,-0.9580078,-0.3481445,-6.52439,21.89024,-4.756098
12:01.1,0.87075,-0.059082,-0.9633789,-0.3452148,-6.158537,19.02439,-5
12:01.1,0.8775,-0.0556641,-0.9658203,-0.3452148,-5.731708,16.03658,-5.060976
12:01.1,0.88425,-0.0527344,-0.9711914,-0.3510742,-5.54878,13.47561,-5.182927
12:01.1,0.891,-0.0449219,-0.972168,-0.3579102,-5.487805,10.48781,-5.060976
12:01.1,0.89775,-0.0327148,-0.9716797,-0.3774414,-5.97561,6.036585,-5.365854
12:01.1,0.9045,-0.0161133,-0.9667969,-0.3823242,-9.268292,0.3658537,-5.426829
12:01.1,0.91125,-0.0097656,-0.9760742,-0.3686523,-11.64634,-2.682927,-5.609756
12:01.1,0.918,-0.0014648,-0.9858398,-0.3662109,-13.41463,-4.390244,-5.54878
12:01.1,0.92475,-0.0004883,-0.9775391,-0.3891602,-14.63415,-5.121951,-5.365854
12:01.1,0.9315,-0.0053711,-0.9648438,-0.418457,-20,-5.365854,-5.060976
12:01.1,0.93825,-0.0224609,-0.9873047,-0.3740234,-25.60976,-5.304878,-4.329268
12:01.1,0.945,-0.015625,-1.037598,-0.2680664,-24.32927,-12.13415,-2.926829
12:01.1,0.95175,0.0131836,-1.050293,-0.2167969,-16.03658,-19.08537,-2.134146
12:01.1,0.9585,0.0449219,-1.009766,-0.2543945,-8.963415,-20.36585,-2.439024
12:01.1,0.96525,0.0561523,-0.965332,-0.3266602,-9.573171,-18.65854,-3.536585
12:01.1,0.972,0.0585938,-0.9345703,-0.3994141,-14.20732,-18.23171,-3.902439
12:01.1,0.97875,0.0551758,-0.9350586,-0.4501953,-22.13415,-19.69512,-4.45122
12:01.1,0.9855,0.0458984,-0.9516602,-0.4462891,-28.10976,-20.18293,-5.487805
12:01.1,0.99225,0.0219727,-1.01416,-0.3481445,-26.46342,-23.29268,-4.817073
12:01.1,0.999,0.0229492,-1.061035,-0.2407227,-17.92683,-31.70732,-3.47561
12:01.1,1.00575,0.0463867,-1.056152,-0.2475586,-12.56098,-40.54878,-2.560976
12:01.1,1.0125,0.0644531,-1.013672,-0.3242188,-12.37805,-41.15854,-2.621951
12:01.1,1.01925,0.0595703,-0.9868164,-0.3110352,-14.14634,-40.79268,-2.439024
12:01.1,1.026,0.0625,-0.9926758,-0.2275391,-15.30488,-40.06098,-2.012195
12:01.1,1.03275,0.0839844,-0.9985352,-0.2084961,-8.231708,-31.28049,-1.402439
12:01.1,1.0395,0.0883789,-0.9824219,-0.2666016,0,-18.10976,-1.707317
12:01.1,1.04625,0.0874023,-0.956543,-0.3344727,1.890244,-8.170732,-1.341463
12:01.1,1.053,0.078125,-0.9560547,-0.3793945,-0.7317073,-1.890244,-1.097561
12:01.1,1.05975,0.0615234,-0.972168,-0.4038086,-0.7926829,1.219512,-1.036585
12:01.1,1.0665,0.0395508,-0.9541016,-0.4228516,1.463415,0.4268293,-1.219512
12:01.1,1.07325,0.0419922,-0.921875,-0.4262695,-2.5,2.439024,-0.3048781
12:01.1,1.08,0.050293,-0.9165039,-0.3818359,-7.439024,10.48781,0.7926829
12:01.1,1.08675,0.0537109,-0.921875,-0.3569336,-7.5,16.46342,0.8536586
12:01.1,1.0935,0.0439453,-0.9370117,-0.3505859,-6.036585,17.19512,0.0609756
12:01.1,1.10025,0.0229492,-0.9423828,-0.3686523,-5.609756,17.86585,-1.707317
12:01.1,1.107,-0.0126953,-0.9521484,-0.3891602,-7.5,20.73171,-3.109756
12:01.1,1.11375,-0.0664063,-0.96875,-0.3720703,-9.329268,22.2561,-3.231707
12:01.1,1.1205,-0.0908203,-0.9936523,-0.34375,-8.536586,21.40244,-2.865854
12:01.1,1.12725,-0.0825195,-0.9916992,-0.347168,-5.853659,17.56098,-2.5
12:01.1,1.134,-0.0541992,-0.972168,-0.3652344,-4.878049,16.15854,-2.317073
12:01.1,1.14075,-0.0288086,-0.9550781,-0.3452148,-7.134147,14.02439,-1.707317
12:01.1,1.1475,-0.0073242,-0.9716797,-0.2958984,-8.841464,10.54878,-1.585366
12:01.1,1.15425,-0.0039063,-0.9921875,-0.2680664,-7.865854,9.634147,-1.402439
12:01.2,1.161,-0.0078125,-1.013184,-0.2641602,-7.073171,10.73171,-1.585366
12:01.2,1.16775,-0.015625,-1.032715,-0.2480469,-7.073171,13.90244,-0.9756098
12:01.2,1.1745,-0.003418,-1.044434,-0.2246094,-5.54878,19.45122,-0.0609756
12:01.2,1.18125,-0.0009766,-1.046875,-0.2231445,-2.865854,22.86585,0.5487805
12:01.2,1.188,0.0078125,-1.032227,-0.2373047,-1.158537,24.32927,0.9146342
12:01.2,1.19475,0.012207,-1.01416,-0.2607422,-1.463415,27.13415,1.52439
12:01.2,1.2015,0.0141602,-1.005859,-0.2890625,-1.402439,29.14634,2.195122
12:01.2,1.20825,0.019043,-0.996582,-0.3017578,-1.890244,29.57317,2.743902
12:01.2,1.215,0.0283203,-0.9868164,-0.2832031,-2.012195,29.39025,3.231707
12:01.2,1.22175,0.0258789,-0.9873047,-0.2817383,-0.8536586,28.96342,3.597561
12:01.2,1.2285,0.027832,-0.9794922,-0.3129883,0.1219512,31.09756,3.719512
12:01.2,1.23525,0.027832,-0.9731445,-0.3295898,-0.5487805,35.06098,4.085366
12:01.2,1.242,0.0258789,-0.9672852,-0.331543,-1.52439,39.39024,4.329268
12:01.2,1.24875,0.0200195,-0.9663086,-0.3139648,-2.378049,41.95122,3.963415
12:01.2,1.2555,0.0117188,-0.9638672,-0.3081055,-2.987805,42.62195,3.414634
12:01.2,1.26225,-0.0048828,-0.9604492,-0.3173828,-3.170732,44.32927,2.682927
12:01.2,1.269,-0.0288086,-0.9672852,-0.3364258,-3.841464,46.46342,2.134146
12:01.2,1.27575,-0.0454102,-0.9697266,-0.3618164,-4.573171,47.9878,1.890244
12:01.2,1.2825,-0.0507813,-0.96875,-0.3681641,-4.939024,48.10976,1.646341
12:01.2,1.28925,-0.0639648,-0.9609375,-0.3696289,-5.121951,46.09756,1.341463
12:01.2,1.296,-0.0639648,-0.9492188,-0.3579102,-6.097561,41.82927,0.9756098
12:01.2,1.30275,-0.0551758,-0.9428711,-0.3549805,-8.353659,37.0122,0.6097561
12:01.2,1.3095,-0.043457,-0.9526367,-0.3642578,-10.18293,32.68293,-0.0609756
12:01.2,1.31625,-0.0405273,-0.9643555,-0.3666992,-10.67073,31.82927,-0.4878049
12:01.2,1.323,-0.0473633,-0.9594727,-0.3569336,-11.58537,31.82927,-1.463415
12:01.2,1.32975,-0.0532227,-0.9619141,-0.3466797,-13.04878,32.9878,-2.195122
12:01.2,1.3365,-0.0551758,-0.9702148,-0.3515625,-12.98781,33.23171,-2.5
12:01.2,1.34325,-0.0449219,-0.9672852,-0.3637695,-13.10976,32.43903,-2.256098
12:01.2,1.35,-0.0336914,-0.9614258,-0.362793,-14.20732,32.31707,-2.621951
12:01.2,1.35675,-0.0239258,-0.965332,-0.3457031,-15.06098,31.09756,-2.987805
12:01.2,1.3635,-0.0063477,-0.9682617,-0.3232422,-14.69512,28.78049,-2.926829
12:01.2,1.37025,0.0029297,-0.9726563,-0.3129883,-13.71951,27.0122,-2.987805
12:01.2,1.377,0.0097656,-0.9775391,-0.3110352,-13.29268,26.15854,-3.109756
12:01.2,1.38375,0.0205078,-0.9882813,-0.3051758,-12.37805,27.43903,-3.414634
12:01.2,1.3905,0.0209961,-0.9951172,-0.3046875,-11.28049,30.2439,-3.353659
12:01.2,1.39725,0.0268555,-0.9951172,-0.2998047,-10.73171,32.68293,-3.353659
12:01.2,1.404,0.0185547,-0.9980469,-0.2958984,-10.30488,35.4878,-2.926829
12:01.2,1.41075,0.0136719,-1.005859,-0.2983398,-9.817074,37.19512,-2.682927
12:01.2,1.4175,0.0073242,-1.006348,-0.3081055,-8.658537,39.69512,-1.829268
12:01.2,1.42425,0.0068359,-1.00293,-0.3076172,-8.292683,40.42683,-1.280488
12:01.2,1.431,0.0078125,-1.000488,-0.2963867,-7.743903,40.4878,-0.9756098
12:01.2,1.43775,0.0185547,-0.9936523,-0.2856445,-7.439024,39.45122,-0.7926829
12:01.2,1.4445,0.0224609,-0.9960938,-0.2822266,-6.52439,38.41463,-0.9146342
12:01.2,1.45125,0.0146484,-0.9926758,-0.2866211,-5.54878,37.5,-1.341463
12:01.2,1.458,0.0063477,-0.9946289,-0.3056641,-5,37.7439,-1.890244
12:01.2,1.46475,-0.0068359,-0.9897461,-0.3154297,-5.060976,38.04878,-2.134146
12:01.2,1.4715,-0.0166016,-0.9829102,-0.3339844,-4.817073,38.59756,-2.195122
12:01.2,1.47825,-0.0205078,-0.9775391,-0.3515625,-4.939024,39.02439,-2.5
12:01.2,1.485,-0.0307617,-0.9677734,-0.3579102,-6.158537,37.37805,-2.439024
12:01.2,1.49175,-0.0424805,-0.9643555,-0.3676758,-6.829268,34.20732,-2.560976
12:01.2,1.4985,-0.0400391,-0.9643555,-0.390625,-9.02439,30.85366,-2.682927
12:01.2,1.50525,-0.0351563,-0.9726563,-0.3769531,-9.939025,27.68293,-2.560976
12:01.2,1.512,-0.0268555,-0.9760742,-0.3588867,-10.12195,26.09756,-2.621951
12:01.2,1.51875,-0.0200195,-0.9760742,-0.3530273,-9.878049,22.86585,-2.682927
12:01.2,1.5255,-0.012207,-0.9746094,-0.362793,-9.573171,18.84146,-3.292683
12:01.2,1.53225,-0.0078125,-0.9726563,-0.3588867,-10.67073,15.79268,-3.658537
12:01.2,1.539,-0.0048828,-0.9750977,-0.3369141,-11.40244,14.08537,-3.658537
12:01.2,1.54575,-0.0078125,-0.9829102,-0.3178711,-11.15854,14.57317,-3.841464
12:01.2,1.5525,-0.0112305,-0.984375,-0.315918,-9.573171,15.2439,-3.963415
12:01.2,1.55925,-0.0058594,-0.9858398,-0.3261719,-8.841464,15.2439,-3.963415
12:01.2,1.566,-0.0107422,-0.984375,-0.3291016,-9.390244,14.14634,-4.085366
12:01.2,1.57275,-0.0102539,-0.9863281,-0.3300781,-10.79268,13.84146,-4.02439
12:01.2,1.5795,-0.0078125,-0.9970703,-0.3359375,-11.15854,14.69512,-4.146341
12:01.2,1.58625,-0.0083008,-0.9985352,-0.3496094,-11.03659,12.98781,-3.902439
12:01.2,1.593,-0.0014648,-0.9960938,-0.3300781,-11.58537,11.09756,-3.47561
12:01.2,1.59975,0.0102539,-0.9873047,-0.3032227,-11.70732,9.573171,-3.231707
12:01.2,1.6065,0.0180664,-0.9785156,-0.2988281,-11.89024,8.597561,-3.109756
12:01.2,1.61325,0.0195313,-0.9765625,-0.3242188,-13.17073,5.792683,-2.865854
12:01.2,1.62,0.0175781,-0.9804688,-0.3261719,-14.87805,5.304878,-2.926829
12:01.2,1.62675,0.0053711,-0.9931641,-0.3066406,-14.69512,9.329268,-2.987805
12:01.2,1.6335,-0.0092773,-0.9941406,-0.2905273,-12.92683,12.68293,-2.804878
12:01.2,1.64025,-0.0180664,-0.9902344,-0.2924805,-11.40244,12.56098,-2.378049
12:01.2,1.647,-0.0200195,-1,-0.2929688,-9.45122,8.841464,-2.439024
12:01.2,1.65375,-0.0161133,-1.013672,-0.2944336,-7.073171,8.04878,-2.5
12:01.2,1.6605,-0.0166016,-1.022949,-0.2866211,-5.304878,10.12195,-2.439024
12:01.2,1.66725,-0.0126953,-1.012207,-0.3081055,-4.02439,12.68293,-2.5
12:01.2,1.674,-0.0107422,-1.003418,-0.328125,-4.573171,15.2439,-2.621951
12:01.2,1.68075,-0.0136719,-0.9780273,-0.3520508,-5.792683,18.23171,-2.378049
12:01.2,1.6875,-0.015625,-0.9541016,-0.3613281,-7.073171,21.21951,-1.95122
12:01.2,1.69425,-0.0166016,-0.9394531,-0.3847656,-8.780488,23.17073,-1.097561
12:01.2,1.701,-0.0024414,-0.9355469,-0.4135742,-10.42683,22.07317,-0.1219512
12:01.2,1.70775,0.0405273,-0.9335938,-0.4267578,-11.46342,22.62195,0.0609756
12:01.2,1.7145,0.0805664,-0.9291992,-0.4375,-13.84146,25.73171,-0.7317073
12:01.2,1.72125,0.1015625,-0.9145508,-0.4580078,-16.70732,24.26829,-2.256098
12:01.2,1.728,0.1181641,-0.8979492,-0.4604492,-20.73171,18.17073,-3.658537
12:01.2,1.73475,0.1035156,-0.8725586,-0.4482422,-24.5122,15.73171,-5
12:01.2,1.7415,0.0610352,-0.8779297,-0.3730469,-28.53659,16.03658,-6.341464
12:01.2,1.74825,0.0112305,-0.918457,-0.2954102,-27.07317,14.93902,-7.134147
12:01.2,1.755,-0.0117188,-0.9829102,-0.246582,-22.07317,10,-7.439024
12:01.2,1.76175,-0.0195313,-1.038574,-0.2519531,-16.09756,6.280488,-7.439024
12:01.2,1.7685,-0.0195313,-1.062012,-0.2729492,-12.37805,6.463415,-7.012195
12:01.2,1.77525,-0.0205078,-1.091309,-0.3066406,-11.15854,9.512196,-6.646342
12:01.2,1.782,-0.0302734,-1.092773,-0.3125,-9.817074,12.37805,-6.219512
12:01.2,1.78875,-0.0449219,-1.063477,-0.3144531,-7.134147,11.52439,-5.914634
12:01.2,1.7955,-0.0537109,-1.016602,-0.3339844,-5.54878,8.04878,-5.121951
12:01.2,1.80225,-0.0498047,-0.9794922,-0.3491211,-5.670732,5.97561,-4.634146
12:01.2,1.809,-0.0366211,-0.9550781,-0.3613281,-5.914634,3.902439,-3.292683
12:01.2,1.81575,0.003418,-0.9418945,-0.3632813,-7.865854,2.743902,-1.95122
12:01.2,1.8225,0.0581055,-0.9448242,-0.3510742,-10.48781,4.939024,-0.9756098
12:01.2,1.82925,0.1069336,-0.9462891,-0.3330078,-11.82927,11.09756,-1.036585
12:01.3,1.836,0.1235352,-0.9350586,-0.3100586,-12.56098,17.86585,-1.707317
12:01.3,1.84275,0.1118164,-0.9160156,-0.3203125,-12.5,21.82927,-3.231707
12:01.3,1.8495,0.0922852,-0.918457,-0.3085938,-13.84146,26.95122,-4.146341
12:01.3,1.85625,0.0610352,-0.9506836,-0.2773438,-14.20732,32.0122,-5.304878
12:01.3,1.863,0.0322266,-1.002441,-0.2714844,-12.92683,32.92683,-6.341464
12:01.3,1.86975,0.0166016,-1.027832,-0.2817383,-9.512196,29.39025,-7.073171
12:01.3,1.8765,-0.0141602,-1.060059,-0.3295898,-8.170732,24.63415,-7.560976
12:01.3,1.88325,-0.0610352,-1.065918,-0.3413086,-8.658537,24.02439,-7.621952
12:01.3,1.89,-0.1113281,-1.050781,-0.3154297,-7.743903,22.68293,-6.341464
12:01.3,1.89675,-0.1503906,-1.015137,-0.2866211,-4.634146,16.52439,-4.817073
12:01.3,1.9035,-0.1533203,-0.9624023,-0.2866211,-3.597561,11.95122,-3.902439
12:01.3,1.91025,-0.1030273,-0.918457,-0.3212891,-3.04878,4.878049,-2.195122
12:01.3,1.917,-0.0390625,-0.9091797,-0.3476563,-5.304878,3.597561,-1.463415
12:01.3,1.92375,0.0205078,-0.9291992,-0.3603516,-9.45122,3.04878,-2.256098
12:01.3,1.9305,0.0634766,-0.96875,-0.3491211,-13.96342,6.341464,-3.353659
12:01.3,1.93725,0.0756836,-0.9980469,-0.3115234,-14.26829,11.70732,-4.634146
12:01.3,1.944,0.0620117,-1.007324,-0.2963867,-12.43902,16.95122,-6.829268
12:01.3,1.95075,0.0097656,-1.021973,-0.3027344,-10,18.78049,-9.329268
12:01.3,1.9575,-0.0517578,-1.035645,-0.2949219,-6.95122,15.2439,-10.42683
12:01.3,1.96425,-0.0742188,-1.042969,-0.2915039,-5.97561,8.902439,-9.512196
12:01.3,1.971,-0.0849609,-1.054199,-0.2895508,-5.304878,4.45122,-7.439024
12:01.3,1.97775,-0.0444336,-1.023438,-0.3325195,-7.804878,6.768293,-5.487805
12:01.3,1.9845,0.0073242,-0.9521484,-0.4013672,-12.56098,15.42683,-6.158537
12:01.3,1.99125,0.0283203,-0.875,-0.440918,-17.5,20.97561,-8.414635
12:01.3,1.998,0.0019531,-0.8300781,-0.4287109,-19.20732,21.82927,-9.512196
12:01.3,2.00475,-0.043457,-0.8193359,-0.3891602,-22.56098,22.0122,-10.85366
12:01.3,2.0115,-0.0732422,-0.8413086,-0.3486328,-25.42683,23.90244,-10.48781
12:01.3,2.01825,-0.0878906,-0.890625,-0.3305664,-27.43903,30.30488,-10.18293
12:01.3,2.025,-0.0893555,-0.9648438,-0.3046875,-28.65854,33.35366,-10.79268
12:01.3,2.03175,-0.0756836,-1.017578,-0.2744141,-28.59756,31.82927,-11.95122
12:01.3,2.0385,-0.0629883,-1.035156,-0.2553711,-27.80488,31.46342,-14.20732
12:01.3,2.04525,-0.078125,-1.018066,-0.2358398,-27.13415,32.7439,-16.70732
12:01.3,2.052,-0.112793,-0.9995117,-0.1962891,-25.73171,31.76829,-19.26829
12:01.3,2.05875,-0.1499023,-0.9799805,-0.1542969,-24.26829,28.17073,-20.06098
12:01.3,2.0655,-0.1567383,-0.9755859,-0.1381836,-22.5,24.69512,-19.87805
12:01.3,2.07225,-0.1621094,-0.9824219,-0.1064453,-21.03659,23.17073,-19.57317
12:01.3,2.079,-0.1523438,-1.009766,-0.0703125,-19.32927,22.7439,-19.57317
12:01.3,2.08575,-0.152832,-1.043457,-0.0297852,-16.82927,23.78049,-20
12:01.3,2.0925,-0.1757813,-1.075195,0.0131836,-13.41463,25.91463,-19.87805
12:01.3,2.09925,-0.2094727,-1.097168,0.0644531,-11.46342,27.37805,-19.45122
12:01.3,2.106,-0.2553711,-1.109375,0.1191406,-6.890244,30.2439,-17.86585
12:01.3,2.11275,-0.2895508,-1.121094,0.1850586,-1.341463,31.95122,-14.5122
12:01.3,2.1195,-0.3154297,-1.13916,0.2583008,6.463415,30.73171,-10.54878
12:01.3,2.12625,-0.3393555,-1.153809,0.3139648,15.85366,25.79268,-6.768293
12:01.3,2.133,-0.359375,-1.162109,0.3583984,26.03659,15.91463,-3.353659
12:01.3,2.13975,-0.3945313,-1.187012,0.4238281,36.46342,1.707317,-0.3048781
12:01.3,2.1465,-0.4326172,-1.214844,0.5078125,49.45122,-15.73171,3.292683
12:01.3,2.15325,-0.4770508,-1.242676,0.5830078,65.42683,-34.57317,7.073171
12:01.3,2.16,-0.496582,-1.251465,0.6166992,82.0122,-53.10976,11.89024
12:01.3,2.16675,-0.53125,-1.25,0.6552734,97.80488,-69.57317,17.5
12:01.3,2.1735,-0.5507813,-1.224609,0.6489258,113.2927,-81.40244,23.23171
12:01.3,2.18025,-0.5512695,-1.182617,0.5722656,123.3537,-86.82927,29.26829
12:01.3,2.187,-0.4936523,-1.152832,0.4589844,127.9878,-83.59756,36.09756
12:01.3,2.19375,-0.3510742,-1.160645,0.3203125,131.4634,-77.80488,39.45122
12:01.3,2.2005,-0.1416016,-1.188965,0.0405273,144.3902,-61.03659,44.02439
12:01.3,2.20725,0.0883789,-1.218262,-0.3447266,156.0366,-46.15854,41.95122
12:01.3,2.214,0.2661133,-1.266113,-0.6137695,153.8415,-44.87805,33.35366
12:01.3,2.22075,0.3896484,-1.341797,-0.6767578,141.4634,-63.84146,23.23171
12:01.3,2.2275,0.4116211,-1.446777,-0.5664063,125.7317,-90.30488,13.23171
12:01.3,2.23425,0.3164063,-1.572266,-0.3681641,116.7073,-121.5854,4.390244
12:01.3,2.241,0.1816406,-1.67334,-0.125,119.1463,-150.9756,-0.6707317
12:01.3,2.24775,0.0722656,-1.693359,0.0966797,131.3415,-156.7683,-0.9146342
12:01.3,2.2545,0.0107422,-1.625977,0.253418,142.5,-136.1585,3.658537
12:01.3,2.26125,0.0146484,-1.583984,0.2885742,149.0244,-97.62196,9.939025
12:01.3,2.268,0.0722656,-1.516602,0.2519531,153.1707,-51.64634,17.37805
12:01.3,2.27475,0.1791992,-1.460449,0.1401367,152.6829,-19.63415,25.54878
12:01.3,2.2815,0.2856445,-1.392578,0.0791016,149.6342,-9.329268,31.52439
12:01.3,2.28825,0.324707,-1.336426,0.0732422,150.3659,-9.45122,33.47561
12:01.3,2.295,0.2875977,-1.285156,0.0810547,152.0122,-9.45122,33.04878
12:01.3,2.30175,0.1821289,-1.232422,0.097168,154.5122,-6.707317,29.87805
12:01.3,2.3085,0.0605469,-1.188477,0.1040039,155.9756,-1.95122,26.09756
12:01.3,2.31525,-0.0585938,-1.162109,0.1079102,158.9634,5.792683,21.95122
12:01.3,2.322,-0.1772461,-1.131836,0.09375,162.3171,14.45122,17.0122
12:01.3,2.32875,-0.2919922,-1.09668,0.0976563,162.7439,19.5122,12.80488
12:01.3,2.3355,-0.3666992,-1.080566,0.1474609,159.5732,16.40244,11.95122
12:01.3,2.34225,-0.3881836,-1.101074,0.2075195,156.3415,0.9756098,15.42683
12:01.3,2.349,-0.3676758,-1.121582,0.2456055,156.2805,-17.68293,20.73171
12:01.3,2.35575,-0.34375,-1.119141,0.2543945,157.439,-26.82927,25.36585
12:01.3,2.3625,-0.28125,-1.106934,0.2495117,157.8049,-30.73171,28.47561
12:01.3,2.36925,-0.2109375,-1.089844,0.2255859,159.3293,-42.0122,30.73171
12:01.3,2.376,-0.1445313,-1.056152,0.1738281,161.3415,-56.15854,31.40244
12:01.3,2.38275,-0.0771484,-1.008301,0.1210938,162.2561,-56.34146,30.67073
12:01.3,2.3895,-0.0078125,-0.9492188,0.1010742,162.8049,-49.32927,30
12:01.3,2.39625,0.0512695,-0.8847656,0.1142578,164.4512,-29.69512,28.84146
12:01.3,2.403,0.1103516,-0.8198242,0.1289063,166.7683,-11.76829,28.35366
12:01.3,2.40975,0.171875,-0.7563477,0.1347656,167.6829,6.890244,28.41463
12:01.3,2.4165,0.2426758,-0.6855469,0.1450195,165.7927,30.67073,28.71951
12:01.3,2.42325,0.293457,-0.6259766,0.1357422,161.7073,60.97561,28.41463
12:01.3,2.43,0.3105469,-0.5727539,0.1147461,157.1951,91.52439,29.5122
12:01.3,2.43675,0.309082,-0.546875,0.1328125,150.5488,121.1585,31.03659
12:01.3,2.4435,0.2592773,-0.5527344,0.1743164,142.8049,148.2317,33.23171
12:01.3,2.45025,0.1611328,-0.5839844,0.2275391,135.7927,168.7805,35.06098
12:01.3,2.457,0.1020508,-0.6015625,0.2543945,131.0366,179.0854,38.71951
12:01.3,2.46375,-0.0063477,-0.6245117,0.3012695,129.3293,178.2317,43.59756
12:01.3,2.4705,-0.0874023,-0.621582,0.3237305,128.9024,168.1098,48.35366
12:01.3,2.47725,-0.1337891,-0.6044922,0.3227539,127.6829,150.3049,51.46342
12:01.3,2.484,-0.1723633,-0.5722656,0.3095703,123.9024,127.8049,52.31707
12:01.3,2.49075,-0.1962891,-0.5356445,0.3007813,121.1585,115.4268,52.37805
12:01.3,2.4975,-0.2001953,-0.4931641,0.2949219,114.8171,90.42683,51.28049
12:01.3,2.50425,-0.2045898,-0.4399414,0.3071289,104.6951,67.19512,49.45122
12:01.4,2.511,-0.2167969,-0.394043,0.3491211,91.15854,46.70732,45.12195
12:01.4,2.51775,-0.2553711,-0.359375,0.4243164,76.58537,29.32927,39.69512
12:01.4,2.5245,-0.2739258,-0.3227539,0.5366211,64.69512,12.07317,35.67073
12:01.4,2.53125,-0.2666016,-0.2807617,0.628418,56.09756,-9.756098,32.92683
12:01.4,2.538,-0.262207,-0.2460938,0.7231445,47.19512,-32.5,30.12195
12:01.4,2.54475,-0.2675781,-0.2436523,0.8344727,37.0122,-50.2439,27.2561
12:01.4,2.5515,-0.2709961,-0.2573242,0.8969727,27.13415,-58.47561,24.5122
12:01.4,2.55825,-0.3017578,-0.3115234,1.04541,19.63415,-56.89024,20.4878
12:01.4,2.565,-0.3701172,-0.3881836,1.181641,14.81707,-52.2561,15.42683
12:01.4,2.57175,-0.4487305,-0.4692383,1.279297,12.37805,-54.63415,9.634147
12:01.4,2.5785,-0.5375977,-0.5209961,1.285156,12.13415,-67.2561,4.939024
12:01.4,2.58525,-0.5854492,-0.5214844,1.152832,11.46342,-74.5122,2.926829
12:01.4,2.592,-0.5756836,-0.4726563,0.9584961,2.5,-85,0.1829268
12:01.4,2.59875,-0.5336914,-0.4067383,0.7958984,-16.70732,-80.18293,-2.5
12:01.4,2.6055,-0.4755859,-0.3251953,0.6181641,-41.03659,-50.73171,-6.219512
12:01.4,2.61225,-0.4287109,-0.2294922,0.3510742,-69.81708,3.719512,-12.7439
12:01.4,2.619,-0.4482422,-0.1298828,-0.0351563,-105.8537,62.13415,-23.90244
12:01.4,2.62575,-0.4213867,0.0478516,-0.5952148,-147.9878,87.31708,-33.71951
12:01.4,2.6325,-0.246582,0.184082,-0.9799805,-205.061,67.13415,-41.82927
12:01.4,2.63925,-0.0239258,0.09375,-0.6591797,-235.1829,17.92683,-49.39024
12:01.4,2.646,0.2016602,-0.2954102,-0.0610352,-221.3415,-13.90244,-53.23171
12:01.4,2.65275,0.3266602,-0.6088867,0.0776367,-199.2073,6.768293,-46.09756
12:01.4,2.6595,0.5712891,-1.438965,0.262207,-161.5244,70.79269,-15.36585
12:01.4,2.66625,0.6723633,-2.187988,0.7089844,-179.2073,31.95122,25.30488
12:01.4,2.673,0.7568359,-2.908203,1.88623,-155.6098,-105.1829,50.67073
12:01.4,2.67975,1.027832,-2.625,0.9047852,-147.561,11.52439,43.41463
12:01.4,2.6865,0.6386719,-2.032227,-0.5756836,-206.7683,91.03659,23.96342
12:01.4,2.69325,0.2446289,-2.09082,0.484375,-255.5488,122.561,-8.414635
12:01.4,2.7,0.4428711,-1.852539,0.5883789,-165.9756,122.2561,-28.78049
12:01.4,2.70675,0.5009766,-1.375488,-0.7353516,-129.1463,222.8049,-57.0122
12:01.4,2.7135,0.1474609,-1.102051,-0.7958984,-159.7561,212.9268,-79.02439
12:01.4,2.72025,0.1069336,-0.9111328,-0.3398438,-163.9024,108.5976,-73.53659
12:01.4,2.727,-0.0649414,-0.5732422,-0.3764648,-138.0488,120.7927,-67.19512
12:01.4,2.73375,-0.2070313,-0.2836914,-0.4643555,-145.6098,71.15854,-55.54878
12:01.4,2.7405,-0.2885742,-0.2329102,-0.5097656,-164.5122,27.37805,-47.31707
12:01.4,2.74725,-0.3798828,-0.2807617,-0.5385742,-193.5976,34.20732,-45.12195
12:01.4,2.754,-0.4873047,-0.5419922,-0.5893555,-222.6829,42.80488,-40.97561
12:01.4,2.76075,-0.4746094,-0.890625,-0.6254883,-231.7073,37.7439,-45.06098
12:01.4,2.7675,-0.4628906,-1.190918,-0.6401367,-232.8049,10.48781,-61.15854
12:01.4,2.77425,-0.4619141,-1.459473,-0.5678711,-227.9878,-25.18293,-79.7561
12:01.4,2.781,-0.4438477,-1.634277,-0.4873047,-223.7805,-40.91463,-87.62196
12:01.4,2.78775,-0.4580078,-1.650879,-0.3959961,-214.8171,-67.80488,-95.60976
12:01.4,2.7945,-0.4853516,-1.504395,-0.3432617,-207.0122,-86.15854,-87.80488
12:01.4,2.80125,-0.4736328,-1.282227,-0.3056641,-203.8415,-99.81708,-68.53659
12:01.4,2.808,-0.3867188,-1.059082,-0.2651367,-205.8537,-109.5732,-46.95122
12:01.4,2.81475,-0.2407227,-0.8398438,-0.2001953,-211.4025,-115.5488,-28.04878
12:01.4,2.8215,-0.0332031,-0.6533203,-0.1337891,-217.6829,-113.0488,-13.04878
12:01.4,2.82825,0.1855469,-0.5263672,-0.0952148,-222.622,-97.37805,-2.804878
12:01.4,2.835,0.3637695,-0.4814453,-0.0947266,-228.8415,-76.46342,0.1829268
12:01.4,2.84175,0.4506836,-0.5234375,-0.1074219,-234.8171,-49.63415,-3.353659
12:01.4,2.8485,0.4433594,-0.5654297,-0.105957,-237.7439,-15.67073,-10.06098
12:01.4,2.85525,0.3540039,-0.6625977,-0.0874023,-236.9512,13.04878,-15.54878
12:01.4,2.862,0.2128906,-0.7338867,-0.0644531,-233.4146,32.0122,-18.10976
12:01.4,2.86875,0.0761719,-0.7841797,-0.0532227,-229.4512,52.13415,-17.7439
12:01.4,2.8755,-0.0488281,-0.8549805,-0.0297852,-224.8171,74.7561,-12.43902
12:01.4,2.88225,-0.0927734,-0.9570313,0.0341797,-222.1342,85.54878,-7.804878
12:01.4,2.889,-0.0166016,-1.067871,0.1259766,-212.0122,108.9634,0.9756098
12:01.4,2.89575,0.097168,-1.12793,0.1254883,-195.7317,136.2805,4.085366
12:01.4,2.9025,0.1918945,-1.157227,0.0649414,-184.3902,149.3293,0
12:01.4,2.90925,0.2519531,-1.193848,-0.0273438,-179.3293,147.6829,-8.292683
12:01.4,2.916,0.2373047,-1.223145,-0.1582031,-177.561,153.1098,-17.07317
12:01.4,2.92275,0.1293945,-1.237305,-0.2543945,-176.4025,169.6951,-24.69512
12:01.4,2.9295,-0.0571289,-1.217285,-0.3330078,-169.4512,190.7927,-29.93903
12:01.4,2.93625,-0.2495117,-1.158691,-0.4306641,-158.9634,208.2317,-29.5122
12:01.4,2.943,-0.3349609,-1.104004,-0.4960938,-151.5244,232.9268,-22.62195
12:01.4,2.94975,-0.4472656,-0.9960938,-0.565918,-142.0122,254.3902,-11.64634
12:01.4,2.9565,-0.4404297,-0.9130859,-0.5170898,-128.2317,245.4268,-3.47561
12:01.4,2.96325,-0.2797852,-0.8632813,-0.4262695,-125.1829,226.0976,-7.378049
12:01.4,2.97,-0.0639648,-0.9238281,-0.4101563,-128.8415,203.6585,-18.65854
12:01.4,2.97675,0.0546875,-1.115723,-0.4047852,-129.8171,190.4878,-25.79268
12:01.4,2.9835,-0.1210938,-1.254395,-0.2661133,-129.3902,175.8537,-40.85366
12:01.4,2.99025,-0.4868164,-1.188477,-0.1713867,-131.3415,163.0488,-54.14634
12:01.4,2.997,-0.625,-0.984375,-0.1855469,-132.7439,133.5976,-53.10976
12:01.4,3.00375,-0.4677734,-0.8588867,-0.1298828,-140.9146,113.5366,-42.19512
12:01.4,3.0105,-0.1669922,-1.113281,-0.0112305,-148.8415,95.2439,-32.07317
12:01.4,3.01725,-0.0258789,-1.524414,-0.012207,-142.0122,95.79269,-33.29268
12:01.4,3.024,-0.1777344,-1.746582,-0.0561523,-129.2683,111.4634,-42.43903
12:01.4,3.03075,-0.46875,-1.774902,-0.0395508,-115.1829,110.3049,-49.7561
12:01.4,3.0375,-0.7250977,-1.677246,0.0009766,-104.1463,103.4146,-53.04878
12:01.4,3.04425,-0.8022461,-1.632813,0.0107422,-97.80488,106.1585,-49.57317
12:01.4,3.051,-0.7832031,-1.675781,-0.003418,-88.90244,95.60976,-40.12195
12:01.4,3.05775,-0.4960938,-1.705078,-0.0844727,-82.13415,85.79269,-33.29268
12:01.4,3.0645,-0.2675781,-1.688965,0.0087891,-78.35366,92.37805,-33.41463
12:01.4,3.07125,-0.296875,-1.802246,0.1518555,-67.43903,114.5732,-36.7683
12:01.4,3.078,-0.5688477,-1.942383,0.2978516,-58.65854,125.6707,-39.02439
12:01.4,3.08475,-0.8120117,-2.058105,0.449707,-36.15854,138.4146,-37.19512
12:01.4,3.0915,-0.8764648,-2.15332,0.5395508,-9.268292,143.6585,-30.06098
12:01.4,3.09825,-0.9282227,-2.205566,0.5498047,22.37805,137.9268,-22.80488
12:01.4,3.105,-1.111816,-2.300293,0.6625977,55.36586,121.0976,-14.5122
12:01.4,3.11175,-1.366211,-2.333984,0.8583984,98.90244,105.9756,0.9146342
12:01.4,3.1185,-1.502441,-2.154297,1.089844,148.2317,97.19512,25.85366
12:01.4,3.12525,-1.400879,-1.904785,1.213379,190.5488,84.57317,55.60976
12:01.4,3.132,-1.134277,-1.842285,1.124023,220.8537,65.79269,83.84147
12:01.4,3.13875,-0.9951172,-1.880859,1,248.2317,54.7561,104.7561
12:01.4,3.1455,-0.7485352,-1.980957,0.425293,276.8903,67.68293,117.8659
12:01.4,3.15225,-0.4814453,-1.836426,-0.5097656,280.1829,93.71951,125.122
12:01.4,3.159,-0.1953125,-1.609863,-1.110352,244.1463,46.7683,122.1951
12:01.4,3.16575,0.0029297,-1.650879,-1.130859,233.1098,-61.09756,114.6341
12:01.4,3.1725,0.0786133,-1.905273,-1.143555,238.0488,-112.8659,110.9146
12:01.4,3.17925,0.0205078,-2.007813,-1.35791,235,-184.0244,106.4024
12:01.5,3.186,-0.2104492,-2.11084,-1.489746,199.8781,-202.3781,103.4756
12:01.5,3.19275,-0.4106445,-2.259766,-0.7167969,162.561,-209.6342,101.8902
12:01.5,3.1995,-0.3330078,-2.447266,-0.0961914,193.6585,-234.3902,102.3171
12:01.5,3.20625,-0.0131836,-2.570801,-0.1757813,242.0732,-264.1464,99.45123
12:01.5,3.213,0.4765625,-2.493652,-0.7314453,283.2927,-245.7317,92.80488
12:01.5,3.21975,0.934082,-2.299805,-1.137695,285.9756,-187.2561,79.20732
12:01.5,3.2265,1.160645,-2.162598,-1.06543,263.9024,-153.2317,63.47561
12:01.5,3.23325,1.09668,-2.027832,-0.8574219,254.8171,-140.8537,54.39024
12:01.5,3.24,0.9624023,-1.933105,-0.7807617,259.6951,-100.7317,56.64634
12:01.5,3.24675,0.6132813,-1.700195,-0.6738281,263.4756,-47.0122,70.30488
12:01.5,3.2535,0.324707,-1.474609,-0.5976563,260.8537,-9.573171,88.71951
12:01.5,3.26025,0.1474609,-1.282715,-0.5693359,253.6585,9.756098,106.4024
12:01.5,3.267,0.0966797,-1.109375,-0.590332,244.5732,19.81707,120.7927
12:01.5,3.27375,0.1420898,-0.9443359,-0.6230469,240.3659,24.45122,125.5488
12:01.5,3.2805,0.2089844,-0.8085938,-0.6499023,232.3781,35.4878,128.9634
12:01.5,3.28725,0.2099609,-0.6640625,-0.6547852,224.8171,48.41463,125.6098
12:01.5,3.294,0.171875,-0.5097656,-0.6518555,214.5122,59.39024,121.3415
12:01.5,3.30075,0.0883789,-0.3793945,-0.6445313,199.2683,69.45122,118.1098
12:01.5,3.3075,-0.0126953,-0.3144531,-0.6518555,181.7683,76.95122,116.5244
12:01.5,3.31425,-0.1235352,-0.3129883,-0.6801758,165,79.5122,114.8781
12:01.5,3.321,-0.2075195,-0.3383789,-0.7226563,148.2927,76.03659,113.4756
12:01.5,3.32775,-0.2504883,-0.3666992,-0.7548828,130.4878,65.36585,112.7439
12:01.5,3.3345,-0.2421875,-0.3696289,-0.7661133,114.3902,48.17073,113.1098
12:01.5,3.34125,-0.1616211,-0.3398438,-0.793457,102.3781,23.90244,112.8049
12:01.5,3.348,-0.003418,-0.284668,-0.8256836,93.71951,-1.341463,109.939
12:01.5,3.35475,0.1352539,-0.234375,-0.8603516,87.80488,-26.95122,104.8171
12:01.5,3.3615,0.2358398,-0.1645508,-0.8974609,83.78049,-52.2561,96.95123
12:01.5,3.36825,0.3295898,-0.0737305,-0.9335938,81.89024,-62.62195,91.95123
12:01.5,3.375,0.3852539,0.0058594,-0.9301758,77.5,-76.40244,79.32927
12:01.5,3.38175,0.3974609,0.0571289,-0.9077148,72.56097,-80.36585,66.34146
12:01.5,3.3885,0.3808594,0.0859375,-0.8764648,66.82927,-77.62196,53.96342
12:01.5,3.39525,0.3515625,0.0922852,-0.8339844,60.36586,-76.21951,43.17073
12:01.5,3.402,0.3364258,0.074707,-0.7871094,53.96342,-81.52439,33.35366
12:01.5,3.40875,0.3374023,0.0429688,-0.7519531,46.28049,-90.48781,24.26829
12:01.5,3.4155,0.3486328,0.0419922,-0.7246094,36.89024,-98.47561,17.80488
12:01.5,3.42225,0.4013672,0.0444336,-0.6992188,26.64634,-106.9512,15.73171
12:01.5,3.429,0.4765625,0.0449219,-0.652832,16.70732,-121.4024,15.60976
12:01.5,3.43575,0.5209961,0.0332031,-0.6054688,7.073171,-139.2683,13.71951
12:01.5,3.4425,0.5800781,-0.0068359,-0.4775391,-1.402439,-147.5,8.841464
12:01.5,3.44925,0.5805664,-0.0551758,-0.3398438,-12.62195,-148.4146,1.219512
12:01.5,3.456,0.46875,-0.1240234,-0.2211914,-30.85366,-158.7195,-9.146341
12:01.5,3.46275,0.2792969,-0.2148438,-0.1894531,-60.42683,-178.2927,-19.14634
12:01.5,3.4695,0.1254883,-0.3486328,-0.3256836,-81.7683,-180.7317,-22.5
12:01.5,3.47625,0.0507813,-0.6196289,-0.3237305,-141.4024,-150.3049,-23.29268
12:01.5,3.483,0.0668945,-1.231934,0.6586914,-216.7073,-38.59756,-6.341464
12:01.5,3.48975,-0.8085938,-2.845215,4.460938,-243.8415,221.9512,4.939024
12:01.5,3.4965,-2.976563,-4.893066,7.304688,-37.43903,34.87805,5.426829
12:01.5,3.50325,-1.356934,-4.454102,3.585449,12.19512,-322.0122,39.08537
12:01.5,3.51,0.2089844,-3.168945,1.217285,-82.31708,-149.8781,11.40244
12:01.5,3.51675,0.2724609,-1.891113,0.578125,-88.41463,135.3659,-37.31707
12:01.5,3.5235,0.1108398,-1.234375,0.331543,-30.85366,291.3415,-57.2561
12:01.5,3.53025,0.003418,-1.028809,0.2993164,-8.719512,302.3171,-50.79268
12:01.5,3.537,-0.2060547,-0.7749023,0.3608398,-59.69512,151.3415,-18.84146
12:01.5,3.54375,-0.4189453,-1.046875,1.468262,-58.53659,-128.7805,48.78049
12:01.5,3.5505,0.1572266,-0.6728516,0.2075195,-99.69512,-276.8293,80.12196
12:01.5,3.55725,0.9165039,-0.0727539,-0.4775391,-105.6098,-89.39024,76.40244
12:01.5,3.564,0.7177734,0.671875,0.293457,-80.06097,-63.71951,75.85366
12:01.5,3.57075,4.189941,0.5649414,-5.041504,85.18293,355.8537,139.6342
12:01.5,3.5775,2.232422,0.0488281,-7.338379,18.78049,617.561,-24.32927
12:01.5,3.58425,0.8886719,0.6713867,-4.99707,-209.1463,-410.3049,-153.1707
12:01.5,3.591,-3.433105,-1.570801,8.36377,-541.8293,-560,-170.9756
12:01.5,3.59775,-3.87793,-7.693359,7.338867,-70.48781,-185.7317,184.8781
12:01.5,3.6045,1.360352,-6.413086,0.2524414,-0.6097561,-399.2683,93.47561
12:01.5,3.61125,2.478027,-3.73584,-3.52832,182.9268,531.5244,-6.52439
12:01.5,3.618,1.118652,-1.426758,-5.631348,216.5244,899.0854,-82.19512
12:01.5,3.62475,0.5463867,0.1606445,-3.921387,-2.439024,295.1829,-85.2439
12:01.5,3.6315,0.5751953,0.7583008,-2.21582,-213.9025,-378.1707,-50.79268
12:01.5,3.63825,1.137695,1.263184,1.173828,-230.061,-516.6464,-38.35366
12:01.5,3.645,1.051758,0.7026367,0.7207031,-92.31708,49.5122,-182.5
12:01.5,3.65175,-1.86084,0.2436523,-2.01709,-137.561,251.8293,-167.9878
12:01.5,3.6585,-2.443359,0.3774414,-2.191895,-228.5366,30.48781,7.621952
12:01.5,3.66525,-1.458984,-0.1254883,-1.285645,-229.8171,-75.18293,65
12:01.5,3.672,-0.6518555,-0.6313477,-1.198242,-206.1585,-142.2561,114.8781
12:01.5,3.67875,-0.2231445,-1.085449,-1.160156,-220.122,-92.07317,86.28049
12:01.5,3.6855,0.1674805,-1.716797,-0.8955078,-247.561,-85.73171,28.04878
12:01.5,3.69225,0.5512695,-2.409668,-0.4956055,-250.8537,-116.5244,-35
12:01.5,3.699,0.456543,-2.548828,-0.1396484,-215.061,-110.7927,-82.43903
12:01.5,3.70575,0.0859375,-2.007324,-0.1713867,-167.3781,-54.45122,-85.97561
12:01.5,3.7125,-0.3193359,-1.373535,-0.3613281,-152.561,-0.7926829,-81.70732
12:01.5,3.71925,-0.640625,-0.887207,-0.4506836,-158.4146,15.36585,-76.34147
12:01.5,3.726,-0.734375,-0.6816406,-0.4472656,-171.4634,1.646341,-60.06098
12:01.5,3.73275,-0.71875,-0.2875977,-0.3554688,-181.8902,-8.719512,-19.81707
12:01.5,3.7395,-0.3706055,-0.0297852,-0.3110352,-193.7195,7.195122,25
12:01.5,3.74625,0.0307617,-0.0561523,-0.3134766,-212.622,46.03659,50.2439
12:01.5,3.753,0.2958984,-0.3295898,-0.3188477,-232.9268,88.90244,57.86586
12:01.5,3.75975,0.4428711,-0.7104492,-0.2583008,-239.3293,108.3537,58.71951
12:01.5,3.7665,0.5878906,-1.066406,-0.1552734,-241.4634,145.2439,57.2561
12:01.5,3.77325,0.7368164,-1.333496,-0.0639648,-232.3781,182.6219,47.7439
12:01.5,3.78,0.7636719,-1.503906,-0.0087891,-212.7439,212.0122,27.43903
12:01.5,3.78675,0.6049805,-1.566406,-0.0410156,-185.2439,221.8293,3.231707
12:01.5,3.7935,0.3637695,-1.51416,-0.1411133,-162.3171,227.1342,-15.91463
12:01.5,3.80025,0.1337891,-1.312988,-0.2797852,-148.3537,248.7195,-26.28049
12:01.5,3.807,-0.1113281,-1.054199,-0.4604492,-142.3171,289.6342,-31.52439
12:01.5,3.81375,-0.4072266,-0.8920898,-0.4892578,-143.4146,328.1098,-32.13415
12:01.5,3.8205,-0.5820313,-0.8354492,-0.3095703,-143.9024,322.1951,-23.78049
12:01.5,3.82725,-0.5541992,-0.8535156,-0.2333984,-145.061,265.1829,-15.67073
12:01.5,3.834,-0.3920898,-1.053223,-0.1240234,-146.1585,207.8659,-17.31707
12:01.5,3.84075,-0.2475586,-1.374023,0.0200195,-141.7683,166.1585,-26.58537
12:01.5,3.8475,-0.105957,-1.51123,0.1113281,-128.7805,147.6829,-41.40244
12:01.5,3.85425,-0.0756836,-1.21875,-0.0292969,-122.5,154.6951,-57.07317
12:01.6,3.861,-0.1552734,-0.7758789,-0.1987305,-128.6585,155.7317,-62.5
12:01.6,3.86775,-0.2504883,-0.5615234,-0.1064453,-147.6829,154.6951,-66.40244
12:01.6,3.8745,-0.34375,-0.6845703,-0.1499023,-150.1219,153.9634,-63.78049
12:01.6,3.88125,-0.4541016,-1.016113,-0.3671875,-142.3781,156.9512,-57.37805
12:01.6,3.888,-0.5214844,-1.409668,-0.2670898,-140.061,141.0366,-52.56098
12:01.6,3.89475,-0.6337891,-1.552734,0.0014648,-134.8171,128.7195,-54.02439
12:01.6,3.9015,-0.6655273,-1.568359,0.2197266,-127.8049,119.5732,-52.31707
12:01.6,3.90825,-0.4731445,-1.624023,0.2836914,-115.2439,116.5244,-43.35366
12:01.6,3.915,-0.2612305,-1.688965,0.2822266,-99.20732,125.7927,-36.46342
12:01.6,3.92175,-0.2832031,-1.697754,0.1884766,-81.52439,140.7927,-37.37805
12:01.6,3.9285,-0.3740234,-1.679688,0.1577148,-66.15854,152.561,-39.5122
12:01.6,3.93525,-0.5922852,-1.646973,0.184082,-51.09756,155.1219,-38.17073
12:01.6,3.942,-0.690918,-1.646973,0.284668,-35.30488,149.939,-32.86586
12:01.6,3.94875,-0.7026367,-1.674805,0.4038086,-16.40244,145.9756,-27.43903
12:01.6,3.9555,-0.7099609,-1.670898,0.5522461,-4.939024,145.3659,-24.45122
12:01.6,3.96225,-0.7080078,-1.589844,0.7070313,19.14634,144.6951,-18.78049
12:01.6,3.969,-0.715332,-1.466797,0.8876953,44.08537,142.0732,-12.7439
12:01.6,3.97575,-0.7163086,-1.336426,1.066406,72.13415,138.1098,-6.219512
12:01.6,3.9825,-0.7324219,-1.253418,1.121582,102.3781,136.8902,1.646341
12:01.6,3.98925,-0.7275391,-1.26123,1.075684,133.2317,138.1707,12.31707
12:01.6,3.996,-0.71875,-1.353516,0.9072266,160.2439,140.3049,22.0122
12:01.6,4.00275,-0.7592773,-1.663574,0.690918,184.1463,137.7439,29.93903
12:01.6,4.0095,-0.9824219,-2.069336,0.3046875,215.6098,145.5488,37.43903
12:01.6,4.01625,-1.343262,-2.171875,-0.2392578,246.4025,165.6098,49.81707
12:01.6,4.023,-1.466309,-2.018066,-0.4936523,239.8171,143.5366,68.35366
12:01.6,4.02975,-1.397461,-1.617188,-0.8398438,203.4756,71.34147,88.53659
12:01.6,4.0365,-1.043457,-1.603516,-1.097168,193.1707,-19.87805,112.3171
12:01.6,4.04325,-0.6376953,-1.750488,-1.526855,204.5122,-98.29269,129.2073
12:01.6,4.05,-0.4570313,-1.77832,-1.371582,183.5366,-135.2439,134.939
12:01.6,4.05675,-0.6142578,-2.049805,-0.625,180.3659,-148.4756,139.3293
12:01.6,4.0635,-0.7729492,-2.379883,-0.5483398,200.6707,-183.9025,150.4878
12:01.6,4.07025,-0.6723633,-2.696777,-0.8325195,206.7073,-223.0488,154.8781
12:01.6,4.077,-0.2080078,-2.92627,-0.9150391,203.0488,-261.4024,145.1829
12:01.6,4.08375,0.3574219,-2.905273,-0.8916016,212.3781,-275.9756,124.5122
12:01.6,4.0905,0.7197266,-2.733887,-0.9140625,226.4634,-256.5854,105.8537
12:01.6,4.09725,0.8701172,-2.592773,-0.8598633,233.1707,-214.939,96.03659
12:01.6,4.104,0.8818359,-2.464355,-0.7338867,236.6463,-171.4634,93.41463
12:01.6,4.11075,0.7553711,-2.307617,-0.6040039,238.1707,-136.6463,96.58537
12:01.6,4.1175,0.5449219,-2.130859,-0.4941406,241.1585,-110.9756,105
12:01.6,4.12425,0.4418945,-2.04248,-0.4658203,243.5366,-90.18293,115.2439
12:01.6,4.131,0.2573242,-1.861816,-0.4638672,238.8415,-77.68293,124.3293
12:01.6,4.13775,0.1420898,-1.672852,-0.4838867,229.939,-75.18293,131.7073
12:01.6,4.1445,0.1113281,-1.484375,-0.5170898,220.7317,-80.97561,135.3659
12:01.6,4.15125,0.1591797,-1.292969,-0.5639648,217.439,-85.42683,135
12:01.6,4.158,0.253418,-1.09375,-0.6201172,213.5366,-95.12196,132.3781
12:01.6,4.16475,0.3261719,-0.8759766,-0.6860352,210.061,-99.08537,125.3049
12:01.6,4.1715,0.3369141,-0.6489258,-0.7158203,203.9634,-96.09756,117.0122
12:01.6,4.17825,0.3276367,-0.4433594,-0.7143555,194.2683,-90.2439,110.1829
12:01.6,4.185,0.3339844,-0.2861328,-0.7114258,183.2927,-77.56097,105.2439
12:01.6,4.19175,0.3417969,-0.2114258,-0.7075195,169.5732,-59.57317,101.0366
12:01.6,4.1985,0.347168,-0.1953125,-0.6914063,154.7561,-46.70732,96.89024
12:01.6,4.20525,0.3515625,-0.1987305,-0.6831055,142.9878,-34.32927,92.92683
12:01.6,4.212,0.3813477,-0.1762695,-0.6899414,137.8659,-19.39024,88.35366
12:01.6,4.21875,0.4106445,-0.1474609,-0.7084961,137.6219,-4.207317,82.62196
12:01.6,4.2255,0.515625,-0.0561523,-0.7592773,135.061,14.02439,75.85366
12:01.6,4.23225,0.6220703,0.0258789,-0.8056641,127.0732,38.10976,65.30488
12:01.6,4.239,0.6401367,0.0942383,-0.8261719,115.6707,65.60976,54.32927
12:01.6,4.24575,0.6054688,0.1289063,-0.8364258,104.0244,91.64635,45.73171
12:01.6,4.2525,0.5727539,0.1293945,-0.8486328,97.7439,101.7073,42.2561
12:01.6,4.25925,0.5224609,0.0961914,-0.855957,83.04878,112.7439,36.09756
12:01.6,4.266,0.449707,0.0449219,-0.8393555,66.34146,113.2317,31.52439
12:01.6,4.27275,0.3793945,-0.0073242,-0.8027344,50.12195,102.3781,29.26829
12:01.6,4.2795,0.3237305,-0.0322266,-0.7392578,35.06098,75.60976,27.13415
12:01.6,4.28625,0.2651367,-0.0507813,-0.6875,23.17073,34.2683,23.84146
12:01.6,4.293,0.1513672,-0.0058594,-0.7094727,12.68293,-17.13415,17.80488
12:01.6,4.29975,0.0629883,0.0844727,-0.7670898,0.1219512,-77.0122,15.54878
12:01.6,4.3065,0.2211914,0.1342773,-0.796875,-6.890244,-141.0366,20.73171
12:01.6,4.31325,0.6005859,0.0537109,-0.8100586,-7.560976,-190.8537,24.57317
12:01.6,4.32,0.7939453,-0.0205078,-0.8193359,-16.64634,-203.5976,18.96342
12:01.6,4.32675,1.057617,-0.184082,-0.8618164,-35.12195,-173.9025,5.670732
12:01.6,4.3335,1.031738,-0.3344727,-0.8671875,-57.7439,-152.9268,-17.62195
12:01.6,4.34025,0.7675781,-0.5117188,-0.8793945,-80.48781,-181.4025,-46.34146
12:01.6,4.347,0.4545898,-0.7280273,-1.068848,-93.35366,-200.1829,-57.43903
12:01.6,4.35375,0.1533203,-0.9931641,-1.095215,-137.561,-190.7317,-67.5
12:01.6,4.3605,-0.4038086,-1.394531,0.2709961,-259.1464,-59.45122,-49.93903
12:01.6,4.36725,-3.065918,-3.502441,8.082031,-258.8415,248.9025,-19.57317
12:01.6,4.374,-5.321777,-5.305664,9.102051,-28.10976,-61.03659,-0.1219512
12:01.6,4.38075,-1.473145,-4.684082,3.315918,-33.96342,-319.0854,53.41463
12:01.6,4.3875,0.4726563,-2.94873,0.8691406,-43.04878,-96.7683,27.80488
12:01.6,4.39425,0.7246094,-1.335938,0.4726563,14.26829,146.5854,-13.59756
12:01.6,4.401,0.5493164,-0.5673828,0.2646484,66.34146,254.0244,-31.95122
12:01.6,4.40775,0.0419922,-0.2954102,-0.0175781,42.86586,239.6342,-40.91463
12:01.6,4.4145,-0.2158203,-0.2543945,-0.2607422,-66.34146,113.6585,-25.79268
12:01.6,4.42125,-0.5761719,-0.5512695,0.6953125,-140,-98.29269,27.98781
12:01.6,4.428,-0.3515625,-0.3193359,0.5400391,-177.9878,-273.6585,56.7683
12:01.6,4.43475,0.3095703,0.3540039,0.0097656,-205.122,-267.9268,59.7561
12:01.6,4.4415,0.7016602,0.8574219,2.633789,-15.30488,-188.8415,147.8049
12:01.6,4.44825,5.006348,1.35498,-5.17627,231.9512,592.439,189.5122
12:01.6,4.455,4.291504,-0.7158203,-7.209961,-52.9878,923.1098,-40.12195
12:01.6,4.46175,3.400391,-1.35791,-3.138184,-301.7073,-67.43903,-196.0366
12:01.6,4.4685,0.5136719,-2.625488,4.311035,-400.4268,-509.939,-325.7317
12:01.6,4.47525,-5.861328,-9.863281,7.694824,8.231708,-125.5488,200.9146
12:01.6,4.482,-1.412598,-5.144531,2.024902,51.95122,-328.0488,227.8049
12:01.6,4.48875,1.51123,-2.333984,-2.242676,221.8902,385.7927,109.2073
12:01.6,4.4955,0.0688477,-0.9311523,-7.132813,353.1098,1017.134,-54.45122
12:01.6,4.50225,-0.4335938,0.1142578,-5.131836,-29.93903,355.4878,-121.4634
12:01.6,4.509,-0.5063477,1.046387,-1.255371,-268.8415,-218.4756,-116.7073
12:01.6,4.51575,-0.597168,1.278809,0.6801758,-250.7927,-505.061,-120.7927
12:01.6,4.5225,-0.4770508,1.029297,1.190918,-35.12195,-214.2683,-108.3537
12:01.7,4.52925,-1.137207,0.1274414,-2.125977,-123.7195,83.47561,-94.32927
12:01.7,4.536,-1.456543,-0.2514648,-1.908691,-241.0366,-9.02439,-14.5122
12:01.7,4.54275,-0.7841797,-0.206543,-0.8520508,-187.3781,-161.2195,41.52439
12:01.7,4.5495,0.0537109,-0.487793,-1.050293,-166.3415,-195.2439,53.35366
12:01.7,4.55625,0.6289063,-0.809082,-1.505371,-176.2805,-158.6585,43.41463
12:01.7,4.563,0.9736328,-1.333008,-1.38916,-234.6951,-122.9268,16.09756
12:01.7,4.56975,1.371582,-2.109863,-0.7128906,-281.9512,-149.1463,-19.63415
12:01.7,4.5765,1.256836,-2.603027,-0.144043,-268.1707,-124.6951,-68.90244
12:01.7,4.58325,0.581543,-2.340332,-0.0380859,-218.0488,-36.15854,-86.21951
12:01.7,4.59,-0.0947266,-1.774902,-0.2651367,-181.6463,34.7561,-86.82927
12:01.7,4.59675,-0.6904297,-1.219238,-0.5068359,-170,67.13415,-89.20732
12:01.7,4.6035,-1.169434,-0.6733398,-0.5966797,-173.8415,53.10976,-87.80488
12:01.7,4.61025,-1.324219,-0.4101563,-0.5898438,-183.9634,18.35366,-64.7561
12:01.7,4.617,-1.320801,-0.0410156,-0.519043,-196.4634,-5.792683,-20.06098
12:01.7,4.62375,-0.9536133,-0.0136719,-0.4345703,-213.4756,-18.10976,21.03659
12:01.7,4.6305,-0.4580078,-0.2685547,-0.3505859,-229.5732,-19.26829,43.29268
12:01.7,4.63725,-0.0546875,-0.6542969,-0.2792969,-241.1585,1.829268,50.85366
12:01.7,4.644,0.2626953,-1.031738,-0.1743164,-243.8415,24.20732,54.20732
12:01.7,4.65075,0.6132813,-1.387207,-0.0307617,-241.5244,86.15854,59.32927
12:01.7,4.6575,1.033691,-1.596191,0.1352539,-221.8902,150.3659,57.56098
12:01.7,4.66425,1.364258,-1.558105,0.1972656,-189.2683,204.3293,40.85366
12:01.7,4.671,1.400879,-1.367188,0.1025391,-165.7317,232.0732,10.2439
12:01.7,4.67775,1.139648,-1.165527,-0.1074219,-153.2317,237.3781,-21.64634
12:01.7,4.6845,0.7680664,-0.9956055,-0.2739258,-142.1951,241.4634,-50.30488
12:01.7,4.69125,0.2993164,-0.8520508,-0.296875,-133.9634,260.4268,-68.78049
12:01.7,4.698,-0.190918,-0.8120117,-0.2851563,-135.1219,280.3049,-71.7683
12:01.7,4.70475,-0.512207,-0.8974609,-0.3422852,-140.9756,278.8415,-61.28049
12:01.7,4.7115,-0.5844727,-0.9770508,-0.3828125,-145.9146,277.5,-43.96342
12:01.7,4.71825,-0.6469727,-1.158203,-0.5107422,-145.6707,277.0122,-30.12195
12:01.7,4.725,-0.6196289,-1.223633,-0.5688477,-143.6585,247.0732,-26.52439
12:01.7,4.73175,-0.5146484,-1.074707,-0.4731445,-142.561,202.3171,-34.81707
12:01.7,4.7385,-0.4467773,-0.8520508,-0.3588867,-156.8902,152.3171,-50.54878
12:01.7,4.74525,-0.4736328,-0.7929688,-0.1420898,-167.1342,132.6219,-59.08537
12:01.7,4.752,-0.5668945,-0.8725586,-0.0234375,-177.1951,107.3781,-71.21951
12:01.7,4.75875,-0.5678711,-0.9775391,-0.0932617,-172.7439,96.95123,-71.64634
12:01.7,4.7655,-0.4477539,-1.072754,-0.0571289,-161.2805,99.39024,-61.21951
12:01.7,4.77225,-0.3701172,-1.223633,0.0981445,-148.9634,112.561,-50.85366
12:01.7,4.779,-0.2915039,-1.503418,0.3193359,-138.1098,115.5488,-40.85366
12:01.7,4.78575,-0.1884766,-1.808105,0.4873047,-119.5732,113.7195,-31.95122
12:01.7,4.7925,-0.1464844,-1.931641,0.4272461,-94.5122,128.7195,-26.09756
12:01.7,4.79925,-0.2119141,-1.933105,0.2114258,-74.63415,150.2439,-24.7561
12:01.7,4.806,-0.2680664,-1.916016,0.1337891,-59.08537,161.4634,-24.02439
12:01.7,4.81275,-0.3647461,-1.82666,0.1303711,-45.18293,161.5244,-23.47561
12:01.7,4.8195,-0.4287109,-1.75,0.1782227,-29.81707,157.7439,-23.78049
12:01.7,4.82625,-0.487793,-1.703125,0.2177734,-14.26829,153.9024,-24.14634
12:01.7,4.833,-0.5864258,-1.648438,0.3344727,5.060976,151.3415,-23.23171
12:01.7,4.83975,-0.6601563,-1.559082,0.4594727,15.36585,150.5488,-21.89024
12:01.7,4.8465,-0.6884766,-1.432129,0.5869141,36.46342,147.6219,-17.9878
12:01.7,4.85325,-0.7265625,-1.29541,0.7231445,58.65854,145.6707,-13.96342
12:01.7,4.86,-0.7939453,-1.182129,0.8198242,82.7439,145.3049,-8.170732
12:01.7,4.86675,-0.8339844,-1.15332,0.9223633,104.939,136.5244,0
12:01.7,4.8735,-0.7822266,-1.166504,0.8916016,129.0854,125.4878,9.207317
12:01.7,4.88025,-0.6518555,-1.189453,0.8754883,145.061,114.7561,15.54878
12:01.7,4.887,-0.644043,-1.339844,0.6557617,163.5976,109.3293,17.43902
12:01.7,4.89375,-0.9262695,-1.700684,0.0849609,185,123.4146,19.39024
12:01.7,4.9005,-1.481934,-2.122559,-0.65625,208.7805,150.9146,28.65854
12:01.7,4.90725,-1.767578,-2.186035,-0.9121094,221.2195,140.061,51.09756
12:01.7,4.914,-1.962402,-1.804199,-0.9799805,220.3049,60.12195,74.87805
12:01.7,4.92075,-1.583496,-1.391602,-0.847168,207.8659,-42.19512,94.87805
12:01.7,4.9275,-0.9526367,-1.39209,-0.7231445,205.7317,-101.5244,113.9634
12:01.7,4.93425,-0.3745117,-1.559082,-0.7055664,212.8659,-137.0122,124.3902
12:01.7,4.941,0.1044922,-1.741211,-0.7739258,214.939,-155.1829,125.9756
12:01.7,4.94775,0.3818359,-2.009277,-0.9013672,208.7195,-188.2317,123.1707
12:01.7,4.9545,0.4423828,-2.333008,-0.9301758,196.8902,-207.0122,119.0244
12:01.7,4.96125,0.4038086,-2.662109,-0.859375,197.561,-216.0976,117.9878
12:01.7,4.968,0.5327148,-2.84668,-0.7583008,212.3781,-223.9025,115.9756
12:01.7,4.97475,0.7382813,-2.819336,-0.8476563,231.1585,-206.9512,112.439
12:01.7,4.9815,0.8618164,-2.69873,-0.8652344,230.1829,-174.8171,106.9512
12:01.7,4.98825,0.7749023,-2.570313,-0.6855469,225.7927,-133.4146,99.69512
12:01.7,4.995,0.5585938,-2.395508,-0.5341797,230.9756,-88.47561,96.89024
12:01.7,5.00175,0.4536133,-2.29541,-0.4941406,233.8415,-57.7439,98.23171
12:01.7,5.0085,0.2680664,-2.102051,-0.4331055,226.8902,-49.93903,103.4756
12:01.7,5.01525,0.1904297,-1.956055,-0.4130859,217.7439,-47.7439,113.1707
12:01.7,5.022,0.1879883,-1.835938,-0.4609375,209.8171,-40.60976,121.8902
12:01.7,5.02875,0.2368164,-1.696289,-0.5268555,203.5976,-31.89025,124.6341
12:01.7,5.0355,0.2773438,-1.532227,-0.5869141,201.2195,-28.59756,124.2073
12:01.7,5.04225,0.3056641,-1.362305,-0.6230469,196.4634,-24.93903,120.7317
12:01.7,5.049,0.3178711,-1.20166,-0.6166992,191.2195,-20.91463,115.122
12:01.7,5.05575,0.3305664,-1.021973,-0.6210938,188.5976,-17.92683,107.6829
12:01.7,5.0625,0.3378906,-0.8334961,-0.6279297,182.7439,-13.65854,101.0366
12:01.7,5.06925,0.3095703,-0.6577148,-0.6162109,173.9634,-10.85366,95.97561
12:01.7,5.076,0.2817383,-0.5029297,-0.6064453,163.8415,-10.36585,93.78049
12:01.7,5.08275,0.2529297,-0.3637695,-0.6035156,151.7073,-9.207317,93.23171
12:01.7,5.0895,0.2470703,-0.2626953,-0.6030273,136.9512,-8.109756,93.84147
12:01.7,5.09625,0.2617188,-0.1982422,-0.6083984,121.4024,-5.487805,93.29269
12:01.7,5.103,0.2768555,-0.1723633,-0.6166992,107.5,2.317073,92.43903
12:01.7,5.10975,0.3198242,-0.1210938,-0.6455078,94.39024,15.85366,91.15854
12:01.7,5.1165,0.3613281,-0.0649414,-0.6811523,83.29269,33.17073,88.35366
12:01.7,5.12325,0.3769531,-0.0078125,-0.7197266,73.71951,50.06098,83.53659
12:01.7,5.13,0.3793945,0.0654297,-0.7661133,64.39024,66.64634,78.10976
12:01.7,5.13675,0.3525391,0.1499023,-0.8027344,59.32927,74.63415,75.06097
12:01.7,5.1435,0.3227539,0.2109375,-0.8305664,47.86586,86.7683,68.78049
12:01.7,5.15025,0.3344727,0.2163086,-0.8369141,35,90.18293,62.19512
12:01.7,5.157,0.3178711,0.1586914,-0.7924805,22.7439,78.23171,53.78049
12:01.7,5.16375,0.2070313,0.1054688,-0.7446289,13.53659,45.54878,44.02439
12:01.7,5.1705,0.0913086,0.0917969,-0.7597656,6.95122,-4.45122,37.56098
12:01.7,5.17725,0.0234375,0.0986328,-0.8139648,2.621951,-69.32927,33.53659
12:01.7,5.184,0.0644531,0.0952148,-0.8901367,1.402439,-144.1463,29.93903
12:01.7,5.19075,0.2207031,0.0712891,-0.9541016,2.682927,-203.7805,25.60976
12:01.7,5.1975,0.3193359,0.0483398,-0.9863281,4.02439,-232.7439,20.67073
12:01.7,5.20425,0.5092773,-0.027832,-0.9873047,1.95122,-243.5976,16.34146
12:01.8,5.211,0.6474609,-0.1464844,-0.862793,0.1829268,-245.7317,10.91463
12:01.8,5.21775,0.6914063,-0.277832,-0.7099609,-0.4878049,-241.2195,0.1829268
12:01.8,5.2245,0.6303711,-0.4135742,-0.6049805,-6.463415,-229.939,-14.32927
12:01.8,5.23125,0.5722656,-0.5527344,-0.6293945,-11.82927,-221.0976,-21.52439
12:01.8,5.238,0.5595703,-0.7006836,-0.7055664,-37.68293,-192.439,-35.60976
12:01.8,5.24475,0.46875,-0.8544922,-0.4213867,-89.14635,-147.7439,-47.07317
12:01.8,5.2515,-0.0322266,-1.075684,0.7231445,-178.2317,-55.18293,-52.19512
12:01.8,5.25825,-1.560059,-2.170898,5.731445,-172.8659,53.71951,-42.5
12:01.8,5.265,-2.913574,-3.1875,7.635254,15.06098,-7.5,2.073171
12:01.8,5.27175,-1.516602,-3.428711,3.471191,-29.14634,-65.48781,71.82927
12:01.8,5.2785,0.5678711,-2.950195,1.307617,-76.09756,7.256098,92.7439
12:01.8,5.28525,0.7797852,-1.789063,0.6181641,-34.93903,216.4634,30.2439
12:01.8,5.292,0.2939453,-1.032227,0.293457,15.06098,351.5854,-9.817074
12:01.8,5.29875,0.0170898,-0.8173828,0.1552734,-0.0609756,388.3537,-31.40244
12:01.8,5.3055,-0.5668945,-0.6357422,-0.0351563,-92.13415,327.3171,-44.2683
12:01.8,5.31225,-1.01709,-0.737793,0.1679688,-185.9146,154.8171,-29.93903
12:01.8,5.319,-1.11084,-0.7583008,0.7099609,-231.2805,-81.82927,20.36585
12:01.8,5.32575,-0.7543945,-0.6713867,1.487793,-120.4268,-315.4878,93.96342
12:01.8,5.3325,0.3525391,0.0205078,0.5004883,-49.2683,-368.3537,114.939
12:01.8,5.33925,0.934082,0.7382813,0.0429688,60.2439,-343.6585,116.8293
12:01.8,5.346,3.721191,0.2280273,-5.835449,78.84147,-79.57317,137.0122
12:01.8,5.35275,4.258301,-1.176758,-5.865723,-92.19512,421.2805,-26.28049
12:01.8,5.3595,2.047363,-2.419922,-0.7548828,-397.2561,154.0854,-243.7195
12:01.8,5.36625,-4.213867,-8.035156,6.382813,-198.1707,-46.70732,-166.8293
12:01.8,5.373,-3.967773,-7.131836,3.736328,119.8171,-10.42683,133.8415
12:01.8,5.37975,-1.241211,-2.743164,1.977051,68.65854,-496.5244,43.71951
12:01.8,5.3865,1.85791,-1.650391,-2.769531,337.8659,225,40
12:01.8,5.39325,1.088379,-1.033691,-6.518555,390.3659,951.8903,-109.3902
12:01.8,5.4,-0.8935547,0.3203125,-7.056152,-101.6463,246.2805,-113.5976
12:01.8,5.40675,-0.7192383,1.353516,-2.271973,-376.2805,-401.1585,-6.402439
12:01.8,5.4135,0.3725586,1.191895,1.951172,-210.7927,-461.1585,-11.21951
12:01.8,5.42025,0.3662109,0.2333984,0.6914063,2.012195,-102.9268,-78.78049
12:01.8,5.427,-0.3579102,-0.5771484,-2.019043,-13.65854,68.71951,-73.29269
12:01.8,5.43375,-0.2202148,-0.7949219,-2.683105,-137.561,200,-12.80488
12:01.8,5.4405,0.4033203,-0.8549805,-2.105957,-211.8902,38.10976,16.76829
12:01.8,5.44725,0.9125977,-0.9990234,-1.35498,-214.3902,-202.6829,-1.280488
12:01.8,5.454,1.010742,-1.161133,-0.9257813,-189.8781,-231.1585,-28.04878
12:01.8,5.46075,0.6308594,-1.404785,-0.6635742,-197.6219,-105.7927,-50.36586
12:01.8,5.4675,0.1269531,-1.708984,-0.3515625,-219.2683,-41.03659,-59.57317
12:01.8,5.47425,-0.3417969,-1.814941,-0.2856445,-198.5976,-32.31707,-65
12:01.8,5.481,-0.8823242,-1.631348,-0.4580078,-164.2073,-25.97561,-74.20732
12:01.8,5.48775,-1.201172,-1.319336,-0.5727539,-153.9634,-21.15854,-71.52439
12:01.8,5.4945,-1.16748,-1.161133,-0.5629883,-160.2439,-25.30488,-57.9878
12:01.8,5.50125,-0.8535156,-0.9257813,-0.4804688,-166.2195,-37.92683,-44.63415
12:01.8,5.508,-0.4614258,-0.7617188,-0.4130859,-170.3659,-44.5122,-31.40244
12:01.8,5.51475,-0.1401367,-0.6850586,-0.3710938,-178.9634,-37.9878,-22.37805
12:01.8,5.5215,0.0112305,-0.7041016,-0.2792969,-185.8537,-19.20732,-16.82927
12:01.8,5.52825,0.0097656,-0.7509766,-0.1894531,-186.8293,-6.768293,-12.98781
12:01.8,5.535,-0.0112305,-0.7539063,-0.1425781,-186.7683,21.46342,-1.097561
12:01.8,5.54175,0.0141602,-0.7666016,-0.1132813,-187.9268,49.69512,9.634147
12:01.8,5.5485,0.0898438,-0.8569336,-0.0444336,-189.4512,77.62196,14.7561
12:01.8,5.55525,0.2124023,-0.9697266,0.059082,-186.5244,108.2317,16.21951
12:01.8,5.562,0.3461914,-1.007324,0.1181641,-178.3537,140.1829,15
12:01.8,5.56875,0.4335938,-1.010742,0.1445313,-173.3537,171.6463,10.54878
12:01.8,5.5755,0.4741211,-1.030273,0.168457,-170.6707,200.9146,3.536585
12:01.8,5.58225,0.4389648,-1.058594,0.1503906,-165.3049,221.5244,-6.036585
12:01.8,5.589,0.4047852,-1.061035,0.1206055,-153.8415,225.9146,-16.76829
12:01.8,5.59575,0.3168945,-1.048828,0.0161133,-136.9512,221.7683,-27.86585
12:01.8,5.6025,0.1542969,-1.037109,-0.0825195,-122.2561,216.6463,-37.2561
12:01.8,5.60925,-0.0932617,-1.036133,-0.0742188,-107.9268,207.1951,-41.7683
12:01.8,5.616,-0.3486328,-0.9882813,-0.043457,-98.65854,187.8659,-42.13415
12:01.8,5.62275,-0.5224609,-0.9101563,-0.1015625,-99.08537,170,-40.36586
12:01.8,5.6295,-0.5185547,-0.8891602,-0.2060547,-107.2561,125.4878,-33.17073
12:01.8,5.63625,-0.3549805,-0.940918,-0.1865234,-111.5854,100.6707,-22.56098
12:01.8,5.643,-0.1933594,-1.000977,-0.0688477,-108.0488,101.2805,-17.13415
12:01.8,5.64975,-0.1035156,-1.0625,0.0625,-108.1707,102.439,-16.64634
12:01.8,5.6565,-0.0366211,-1.120605,0.1552734,-111.8902,105.122,-16.52439
12:01.8,5.66325,0.0185547,-1.112305,0.3125,-117.1951,110.7317,-16.46342
12:01.8,5.67,0.0888672,-1.065918,0.4697266,-115.2439,123.7805,-17.13415
12:01.8,5.67675,0.1835938,-0.9750977,0.2099609,-93.10976,144.939,-17.80488
12:01.8,5.6835,0.215332,-0.828125,-0.2124023,-76.52439,153.6585,-22.86585
12:01.8,5.69025,0.1801758,-0.8120117,-0.2744141,-80.30488,147.5,-29.87805
12:01.8,5.697,-0.0668945,-0.9555664,-0.027832,-78.78049,145.3049,-33.47561
12:01.8,5.70375,-0.4389648,-1.124512,0.1455078,-62.2561,149.7561,-32.86586
12:01.8,5.7105,-0.78125,-1.135742,0.0268555,-51.21951,152.1342,-26.03659
12:01.8,5.71725,-0.878418,-1.129395,-0.0209961,-45.30488,137.6829,-15.97561
12:01.8,5.724,-0.6855469,-1.111328,-0.0268555,-41.40244,128.0488,-13.10976
12:01.8,5.73075,-0.4262695,-1.054199,-0.0756836,-32.0122,112.6829,-10.91463
12:01.8,5.7375,-0.1523438,-0.9936523,-0.0581055,-23.65854,101.9512,-11.34146
12:01.8,5.74425,0.0419922,-0.9467773,-0.0698242,-15.30488,96.89024,-14.32927
12:01.8,5.751,0.121582,-0.9248047,-0.1225586,-6.158537,100.8537,-17.86585
12:01.8,5.75775,0.1137695,-0.9545898,-0.1791992,0.1219512,111.8293,-19.7561
12:01.8,5.7645,0.1313477,-1.042969,-0.1083984,5.121951,118.0488,-18.90244
12:01.8,5.77125,0.1762695,-1.104004,-0.012207,12.37805,124.0244,-19.32927
12:01.8,5.778,0.2255859,-1.102051,-0.0449219,22.86585,129.6951,-22.31707
12:01.8,5.78475,0.2412109,-1.087402,-0.0546875,29.87805,136.7683,-26.34146
12:01.8,5.7915,0.2929688,-1.072266,0.0131836,34.14634,144.4512,-30.73171
12:01.8,5.79825,0.3481445,-1.102051,0.1518555,45.30488,158.2927,-36.28049
12:01.8,5.805,0.3862305,-1.043457,0.1499023,56.34146,173.0488,-42.86586
12:01.8,5.81175,0.3803711,-0.9780273,0.043457,63.35366,191.9512,-50.36586
12:01.8,5.8185,0.1147461,-1.160156,-0.1000977,66.58537,203.4146,-53.59756
12:01.8,5.82525,-0.4321289,-1.710938,-0.3066406,81.82927,226.7073,-54.2683
12:01.8,5.832,-1.053223,-2.232422,-0.5693359,112.622,247.0732,-41.89024
12:01.8,5.83875,-1.282227,-1.859863,-0.6547852,144.8781,226.4634,-24.63415
12:01.8,5.8455,-1.062988,-1.143555,-0.4677734,152.7439,141.3415,-13.59756
12:01.8,5.85225,-0.6845703,-0.9023438,-0.1967773,144.1463,57.37805,2.073171
12:01.8,5.859,-0.4853516,-1.106445,-0.2973633,142.3171,34.5122,26.70732
12:01.8,5.86575,-0.5024414,-1.738281,-0.6342773,147.9878,32.9878,60.60976
12:01.8,5.8725,-0.5126953,-2.140137,-1.113281,168.4146,21.70732,87.62196
12:01.8,5.87925,-0.3852539,-1.918457,-1.373535,174.1463,-6.52439,96.89024
12:01.9,5.886,-0.3276367,-1.786621,-1.334961,172.9878,-56.70732,103.7805
12:01.9,5.89275,-0.1547852,-1.667969,-1.111328,169.3293,-112.6829,122.6829
12:01.9,5.8995,0.0366211,-1.756348,-0.8583984,156.5244,-158.2317,141.2805
12:01.9,5.90625,0.1411133,-2.028809,-0.628418,153.4146,-176.8293,152.7439
12:01.9,5.913,0.237793,-2.260742,-0.6020508,157.9878,-162.8049,160.061
12:01.9,5.91975,0.4003906,-2.447754,-0.5722656,160.1829,-152.2561,161.0366
12:01.9,5.9265,0.5888672,-2.541992,-0.4326172,169.5732,-142.1951,155.3659
12:01.9,5.93325,0.6894531,-2.429688,-0.3583984,180.1829,-140.4878,138.3537
12:01.9,5.94,0.6713867,-2.223633,-0.3632813,184.4512,-131.8293,120.061
12:01.9,5.94675,0.6259766,-2.041504,-0.4135742,182.5,-115.7927,108.8415
12:01.9,5.9535,0.6342773,-1.932129,-0.4521484,178.5366,-104.1463,101.7073
12:01.9,5.96025,0.6860352,-1.831543,-0.4667969,175.9756,-97.19512,98.71951
12:01.9,5.967,0.7539063,-1.659668,-0.4560547,174.0854,-94.45123,99.2683
12:01.9,5.97375,0.8212891,-1.464355,-0.4633789,171.7683,-85.67073,101.7683
12:01.9,5.9805,0.84375,-1.36084,-0.4780273,166.8293,-65.42683,102.6829
12:01.9,5.98725,0.8652344,-1.186035,-0.5249023,157.2561,-43.23171,103.4146
12:01.9,5.994,0.8530273,-1.055176,-0.5522461,147.6829,-21.64634,104.3293
12:01.9,6.00075,0.8129883,-0.9550781,-0.5732422,139.4512,-1.768293,103.5366
12:01.9,6.0075,0.7329102,-0.8676758,-0.5722656,129.4512,12.62195,102.1951
12:01.9,6.01425,0.6699219,-0.7998047,-0.5566406,124.3293,17.86585,101.5854
12:01.9,6.021,0.6264648,-0.7641602,-0.5400391,114.3902,26.46342,100.3049
12:01.9,6.02775,0.5805664,-0.7402344,-0.5463867,105.122,32.92683,96.95123
12:01.9,6.0345,0.5249023,-0.7133789,-0.5742188,94.32927,37.5,91.82927
12:01.9,6.04125,0.4560547,-0.6762695,-0.6264648,81.21951,43.17073,85.42683
12:01.9,6.048,0.3754883,-0.6499023,-0.6860352,67.13415,47.9878,77.80488
12:01.9,6.05475,0.2636719,-0.6196289,-0.7387695,54.32927,48.84146,68.35366
12:01.9,6.0615,0.1362305,-0.5830078,-0.7705078,42.7439,46.09756,58.96342
12:01.9,6.06825,0.0107422,-0.5498047,-0.777832,33.29268,38.53659,51.89024
12:01.9,6.075,-0.1157227,-0.5058594,-0.8061523,25.85366,25.54878,47.92683
12:01.9,6.08175,-0.1723633,-0.4858398,-0.8378906,18.29268,6.829268,45.79268
12:01.9,6.0885,-0.269043,-0.4545898,-0.890625,11.03659,-20.67073,45.06098
12:01.9,6.09525,-0.3237305,-0.4228516,-0.9008789,8.597561,-58.65854,46.28049
12:01.9,6.102,-0.3276367,-0.3779297,-0.9052734,14.45122,-100.5488,45.85366
12:01.9,6.10875,-0.3271484,-0.2983398,-0.9677734,18.17073,-143.3537,40.79268
12:01.9,6.1155,-0.3154297,-0.2075195,-1.057617,16.03658,-164.1463,36.95122
12:01.9,6.12225,-0.1904297,-0.1420898,-1.125,1.036585,-201.6463,29.14634
12:01.9,6.129,-0.0014648,-0.1064453,-1.166504,-26.70732,-224.3902,22.37805
12:01.9,6.13575,0.078125,-0.121582,-1.136719,-64.5122,-228.6585,17.56098
12:01.9,6.1425,0.0444336,-0.1728516,-1.061035,-100.9146,-227.6829,14.14634
12:01.9,6.14925,-0.0966797,-0.2167969,-1.012695,-129.3902,-231.4634,8.719512
12:01.9,6.156,-0.2504883,-0.2783203,-0.902832,-155.4878,-250.7927,4.329268
12:01.9,6.16275,-0.2573242,-0.4082031,-0.6782227,-172.1342,-273.3537,4.512195
12:01.9,6.1695,-0.1240234,-0.6049805,-0.4008789,-174.3293,-266.9512,8.109756
12:01.9,6.17625,-0.0302734,-0.7133789,-0.2329102,-173.7195,-224.4512,12.2561
12:01.9,6.183,0.1513672,-0.9458008,0.1791992,-171.5244,-161.4634,13.84146
12:01.9,6.18975,0.2587891,-1.206055,0.5908203,-150.9756,-103.7805,14.57317
12:01.9,6.1965,0.3144531,-1.390625,0.8569336,-124.3293,-72.62196,17.7439
12:01.9,6.20325,0.3735352,-1.466309,1.063477,-111.2195,-69.39024,22.37805
12:01.9,6.21,0.4555664,-1.572754,1.436523,-102.7439,-78.41463,23.84146
12:01.9,6.21675,0.6088867,-1.61377,1.756348,-57.92683,-116.3415,22.2561
12:01.9,6.2235,0.831543,-1.367676,1.552246,7.134147,-168.5976,13.17073
12:01.9,6.23025,1.049805,-0.9194336,0.9760742,42.86586,-209.8171,-5
12:01.9,6.237,1.160645,-0.5268555,0.3598633,36.52439,-208.9634,-29.39025
12:01.9,6.24375,1.082031,-0.3251953,-0.1513672,-1.341463,-164.8781,-52.31707
12:01.9,6.2505,0.8867188,-0.378418,-0.4951172,-47.19512,-99.7561,-64.14634
12:01.9,6.25725,0.6831055,-0.6181641,-0.7290039,-81.70732,-19.93902,-60.67073
12:01.9,6.264,0.4677734,-0.9418945,-0.8676758,-111.8902,88.41463,-44.32927
12:01.9,6.27075,0.2661133,-1.401855,-0.9814453,-129.4512,214.7561,-14.57317
12:01.9,6.2775,0.1669922,-1.685059,-0.9506836,-105.4878,346.4634,27.0122
12:01.9,6.28425,-0.1318359,-2.253906,-0.8203125,-73.90244,381.0976,72.0122
12:01.9,6.291,-0.409668,-2.856445,-0.8461914,-87.19512,243.5366,99.63415
12:01.9,6.29775,-0.9394531,-3.169434,-0.4858398,-103.8415,31.52439,116.2805
12:01.9,6.3045,-1.525879,-2.788574,0.9316406,-3.47561,-51.95122,144.3902
12:01.9,6.31125,-1.208984,-1.659668,0.9594727,53.29268,-63.29268,142.3781
12:01.9,6.318,-0.5146484,-0.909668,0.2148438,52.92683,-87.19512,105.6707
12:01.9,6.32475,0.1030273,-0.9658203,0.1020508,-0.9146342,-51.15854,47.62195
12:01.9,6.3315,0.5014648,-1.04834,-0.0097656,-3.170732,1.463415,-3.536585
12:01.9,6.33825,0.7573242,-0.7304688,-0.5087891,23.59756,28.59756,-40.18293
12:01.9,6.345,0.9316406,-0.3076172,-1.14209,19.32927,47.86586,-68.65854
12:01.9,6.35175,0.855957,-0.0493164,-1.601074,-28.35366,62.07317,-92.92683
12:01.9,6.3585,0.4125977,-0.0444336,-1.459961,-86.52439,12.31707,-110.4878
12:01.9,6.36525,-0.3227539,-0.2314453,-0.6933594,-106.9512,-73.23171,-116.1585
12:01.9,6.372,-0.7670898,-0.3745117,-0.3105469,-88.78049,-106.5244,-99.20732
12:01.9,6.37875,-1.446289,-0.5791016,0.0351563,-65.48781,-74.02439,-55.12195
12:01.9,6.3855,-1.553711,-0.6464844,-0.1220703,-65.2439,-38.47561,-9.695122
12:01.9,6.39225,-1.327637,-0.8422852,-0.3862305,-79.32927,-41.7683,27.0122
12:01.9,6.399,-0.9599609,-1.080078,-0.621582,-89.63415,-81.82927,40.42683
12:01.9,6.40575,-0.6015625,-1.274414,-0.7338867,-93.41463,-105.9146,37.62195
12:01.9,6.4125,-0.34375,-1.450684,-0.6005859,-92.98781,-135.3659,21.64634
12:01.9,6.41925,-0.2255859,-1.53418,-0.3696289,-78.53659,-125.6098,1.707317
12:01.9,6.426,-0.2333984,-1.436523,-0.2011719,-63.59756,-105.3049,-10.60976
12:01.9,6.43275,-0.2163086,-1.228027,-0.0878906,-58.23171,-104.0244,-13.53659
12:01.9,6.4395,-0.1298828,-1.015625,-0.0083008,-57.5,-112.8049,-12.80488
12:01.9,6.44625,0.0419922,-0.8300781,0.0102539,-57.07317,-116.8293,-11.15854
12:01.9,6.453,0.2451172,-0.6958008,-0.015625,-59.2683,-111.3415,-10.79268
12:01.9,6.45975,0.4199219,-0.6572266,-0.0595703,-65.18293,-100.122,-13.10976
12:01.9,6.4665,0.5058594,-0.7382813,-0.1025391,-75.85366,-83.23171,-16.58537
12:01.9,6.47325,0.5224609,-0.8085938,-0.1362305,-85.12196,-55.2439,-15.85366
12:01.9,6.48,0.5219727,-0.9604492,-0.2099609,-94.57317,-30.12195,-12.19512
12:01.9,6.48675,0.4755859,-1.101074,-0.2304688,-98.84147,-23.47561,-9.817074
12:01.9,6.4935,0.3901367,-1.195313,-0.1606445,-93.23171,-20.2439,-10.18293
12:01.9,6.50025,0.2587891,-1.223145,-0.0927734,-81.09756,-11.15854,-13.35366
12:01.9,6.507,0.0649414,-1.210449,-0.097168,-74.63415,-8.719512,-15.36585
12:01.9,6.51375,-0.1508789,-1.171387,-0.1411133,-65.73171,-9.756098,-18.84146
12:01.9,6.5205,-0.3818359,-1.114746,-0.222168,-60.06098,-12.43902,-21.34146
12:01.9,6.52725,-0.5830078,-1.040039,-0.2993164,-60.54878,-15.73171,-21.70732
12:01.9,6.534,-0.715332,-0.9775391,-0.3486328,-63.59756,-19.69512,-19.39024
12:01.9,6.54075,-0.7529297,-0.9189453,-0.3510742,-63.78049,-27.98781,-16.34146
12:01.9,6.5475,-0.6738281,-0.8842773,-0.3286133,-61.34146,-41.28049,-14.69512
12:01.9,6.55425,-0.5356445,-0.8886719,-0.3173828,-59.93903,-55.36586,-16.15854
12:02.0,6.561,-0.3842773,-0.9384766,-0.2885742,-62.37805,-70.67073,-18.84146
12:02.0,6.56775,-0.3208008,-0.972168,-0.2568359,-63.17073,-80.42683,-21.21951
12:02.0,6.5745,-0.2148438,-1.022949,-0.1972656,-59.93903,-83.84147,-23.17073
12:02.0,6.58125,-0.144043,-1.055176,-0.1650391,-56.09756,-86.28049,-26.09756
12:02.0,6.588,-0.097168,-1.070313,-0.1494141,-53.10976,-89.45123,-29.69512
12:02.0,6.59475,-0.0932617,-1.077148,-0.1293945,-48.41463,-90.91463,-32.7439
12:02.0,6.6015,-0.1147461,-1.062012,-0.1186523,-45.97561,-90.36585,-33.47561
12:02.0,6.60825,-0.1323242,-1.038086,-0.109375,-42.13415,-87.0122,-34.08537
12:02.0,6.615,-0.1318359,-1.010742,-0.0844727,-41.15854,-88.65854,-33.53659
12:02.0,6.62175,-0.1259766,-0.996582,-0.0698242,-40.60976,-92.31708,-32.7439
12:02.0,6.6285,-0.1162109,-0.9863281,-0.0839844,-40.30488,-94.87805,-31.76829
12:02.0,6.63525,-0.1098633,-0.984375,-0.0834961,-42.07317,-95.91463,-31.34146
12:02.0,6.642,-0.0878906,-0.9833984,-0.0786133,-43.23171,-94.14635,-30.79268
12:02.0,6.64875,-0.0600586,-0.9741211,-0.0986328,-44.08537,-87.07317,-30.36585
12:02.0,6.6555,-0.0512695,-0.9711914,-0.1245117,-46.46342,-79.7561,-31.21951
12:02.0,6.66225,-0.0664063,-0.9838867,-0.1123047,-50.06098,-77.2561,-33.04878
12:02.0,6.669,-0.0854492,-0.9936523,-0.0966797,-52.31707,-76.09756,-35.42683
12:02.0,6.67575,-0.1445313,-1.023926,-0.0698242,-51.7683,-71.15854,-37.86586
12:02.0,6.6825,-0.2055664,-1.057617,-0.0527344,-47.9878,-66.46342,-40.06098
12:02.0,6.68925,-0.2705078,-1.09082,-0.0351563,-42.37805,-70.85366,-40.79268
12:02.0,6.696,-0.3110352,-1.106934,-0.0385742,-37.9878,-84.2683,-41.09756
12:02.0,6.70275,-0.3325195,-1.118652,-0.0795898,-36.03659,-92.0122,-41.58537
12:02.0,6.7095,-0.3276367,-1.11084,-0.1411133,-31.09756,-100.9146,-41.70732
12:02.0,6.71625,-0.3120117,-1.068359,-0.1611328,-29.57317,-101.1585,-40.79268
12:02.0,6.723,-0.2939453,-1.005371,-0.1474609,-30.06098,-106.4024,-41.09756
12:02.0,6.72975,-0.2856445,-0.9536133,-0.1845703,-28.23171,-115.9756,-42.9878
12:02.0,6.7365,-0.2749023,-0.9125977,-0.2817383,-25.06098,-126.0976,-45.18293
12:02.0,6.74325,-0.2524414,-0.9038086,-0.3798828,-24.02439,-129.5122,-46.46342
12:02.0,6.75,-0.2475586,-0.9130859,-0.4428711,-24.5122,-118.6585,-46.40244
12:02.0,6.75675,-0.2788086,-0.9389648,-0.4799805,-26.89025,-103.4146,-46.40244
12:02.0,6.7635,-0.3027344,-0.9541016,-0.4902344,-29.14634,-97.13415,-45.60976
12:02.0,6.77025,-0.3461914,-0.9824219,-0.4790039,-29.69512,-103.9634,-43.10976
12:02.0,6.777,-0.3486328,-1.014648,-0.4384766,-26.76829,-114.2683,-40.4878
12:02.0,6.78375,-0.3173828,-1.024902,-0.4194336,-23.23171,-117.1341,-38.47561
12:02.0,6.7905,-0.2705078,-1.010254,-0.394043,-21.09756,-114.6341,-37.31707
12:02.0,6.79725,-0.2226563,-0.9824219,-0.3857422,-21.15854,-114.5732,-37.13415
12:02.0,6.804,-0.1650391,-0.9589844,-0.4086914,-22.0122,-116.0366,-36.95122
12:02.0,6.81075,-0.1206055,-0.9541016,-0.4433594,-23.96342,-115.9756,-38.47561
12:02.0,6.8175,-0.1064453,-0.9658203,-0.4550781,-26.03659,-111.7683,-40.67073
12:02.0,6.82425,-0.1162109,-0.9956055,-0.4589844,-24.81707,-105.5488,-42.92683
12:02.0,6.831,-0.1303711,-1.027344,-0.440918,-20.91463,-103.8415,-43.65854
12:02.0,6.83775,-0.1342773,-1.048828,-0.3833008,-15.12195,-106.1585,-42.7439
12:02.0,6.8445,-0.1430664,-1.040527,-0.3476563,-8.231708,-112.1951,-41.15854
12:02.0,6.85125,-0.1484375,-1.031738,-0.34375,-3.414634,-116.0976,-39.5122
12:02.0,6.858,-0.1791992,-1.01416,-0.3408203,0.1219512,-115,-39.02439
12:02.0,6.86475,-0.1923828,-1.010742,-0.3408203,3.841464,-113.2927,-38.29268
12:02.0,6.8715,-0.215332,-0.9985352,-0.3798828,7.865854,-114.3293,-37.92683
12:02.0,6.87825,-0.2231445,-0.9892578,-0.4389648,10.73171,-115.2439,-38.17073
12:02.0,6.885,-0.2324219,-0.9848633,-0.4824219,12.0122,-116.9512,-37.62195
12:02.0,6.89175,-0.2148438,-0.9863281,-0.5078125,13.10976,-120.8537,-36.40244
12:02.0,6.8985,-0.1860352,-0.9907227,-0.5146484,14.5122,-123.1098,-35.79268
12:02.0,6.90525,-0.1616211,-0.9824219,-0.4853516,16.21951,-131.1585,-34.45122
12:02.0,6.912,-0.1416016,-0.9775391,-0.4555664,17.80488,-135.9146,-33.17073
12:02.0,6.91875,-0.1274414,-0.9726563,-0.4238281,19.93902,-137.8659,-32.2561
12:02.0,6.9255,-0.1049805,-0.9829102,-0.3691406,21.15854,-138.8415,-32.07317
12:02.0,6.93225,-0.1118164,-1.006348,-0.3291016,24.02439,-133.9634,-32.62195
12:02.0,6.939,-0.1381836,-1.033203,-0.2924805,27.7439,-128.8415,-32.13415
12:02.0,6.94575,-0.1567383,-1.054199,-0.2612305,33.29268,-132.3781,-31.40244
12:02.0,6.9525,-0.1513672,-1.062988,-0.2446289,38.59756,-140.4268,-30.48781
12:02.0,6.95925,-0.1420898,-1.064453,-0.2197266,41.34146,-147.6219,-28.78049
12:02.0,6.966,-0.1225586,-1.07959,-0.1401367,45.4878,-151.5854,-26.95122
12:02.0,6.97275,-0.1171875,-1.111328,-0.0273438,55.18293,-153.7805,-24.02439
12:02.0,6.9795,-0.0834961,-1.133789,0.0795898,66.7683,-154.2683,-22.13415
12:02.0,6.98625,-0.043457,-1.160645,0.1367188,83.78049,-151.2805,-19.5122
12:02.0,6.993,0.0249023,-1.144531,0.0981445,90.97561,-150.6098,-19.87805
12:02.0,6.99975,0.0712891,-1.105469,0.0839844,100.3659,-151.0976,-20.4878
12:02.0,7.0065,0.1582031,-1.070313,0.1162109,107.0122,-149.4512,-22.43902
12:02.0,7.01325,0.1601563,-1.04541,0.1870117,111.1585,-145.6098,-28.29268
12:02.0,7.02,0.1303711,-1.049316,0.2744141,115.2439,-137.1342,-31.40244
12:02.0,7.02675,0.0820313,-1.060547,0.3359375,123.2927,-127.622,-36.52439
12:02.0,7.0335,-0.0214844,-1.083984,0.3305664,133.4756,-114.2073,-39.20732
12:02.0,7.04025,-0.1518555,-1.12793,0.2641602,141.8293,-94.7561,-40
12:02.0,7.047,-0.2919922,-1.186523,0.1850586,144.2073,-75.91463,-37.43903
12:02.0,7.05375,-0.3891602,-1.253906,0.1079102,141.3415,-64.2683,-31.46342
12:02.0,7.0605,-0.4223633,-1.277344,0.074707,135.061,-59.08537,-24.69512
12:02.0,7.06725,-0.4550781,-1.304199,0.0180664,126.4634,-60.2439,-18.53658
12:02.0,7.074,-0.4873047,-1.319824,-0.0283203,116.0976,-62.62195,-12.19512
12:02.0,7.08075,-0.5224609,-1.324707,-0.0776367,107.1341,-64.5122,-4.085366
12:02.0,7.0875,-0.5478516,-1.306641,-0.1523438,101.2195,-71.40244,6.52439
12:02.0,7.09425,-0.5644531,-1.270508,-0.2753906,99.2683,-76.34147,11.89024
12:02.0,7.101,-0.5673828,-1.20459,-0.4106445,94.63415,-87.62196,23.71951
12:02.0,7.10775,-0.5478516,-1.114746,-0.4882813,85.12196,-99.7561,37.07317
12:02.0,7.1145,-0.4819336,-1.046387,-0.4941406,71.58537,-111.8902,50.30488
12:02.0,7.12125,-0.3969727,-1.005859,-0.4765625,58.29268,-124.4512,59.93903
12:02.0,7.128,-0.3452148,-0.9916992,-0.4921875,49.63415,-140.4878,63.47561
12:02.0,7.13475,-0.3417969,-0.9790039,-0.5405273,47.13415,-161.4024,61.03659
12:02.0,7.1415,-0.3696289,-0.9458008,-0.5751953,44.87805,-177.9268,55
12:02.0,7.14825,-0.4082031,-0.8930664,-0.5307617,38.47561,-179.939,48.23171
12:02.0,7.155,-0.4277344,-0.871582,-0.4912109,28.17073,-169.1463,40.85366
12:02.0,7.16175,-0.4887695,-0.8515625,-0.4023438,18.29268,-159.4512,35.4878
12:02.0,7.1685,-0.5361328,-0.8481445,-0.347168,8.780488,-159.3293,34.45122
12:02.0,7.17525,-0.5449219,-0.8432617,-0.3427734,-1.95122,-169.8171,37.5
12:02.0,7.182,-0.5185547,-0.8452148,-0.3745117,-13.23171,-187.7439,43.10976
12:02.0,7.18875,-0.4628906,-0.8657227,-0.434082,-18.78049,-197.6829,46.58537
12:02.0,7.1955,-0.3847656,-0.8950195,-0.496582,-29.02439,-213.5976,53.90244
12:02.0,7.20225,-0.296875,-0.9169922,-0.5419922,-38.47561,-220.4268,59.7561
12:02.0,7.209,-0.2158203,-0.9208984,-0.5756836,-46.40244,-217.9878,62.13415
12:02.0,7.21575,-0.159668,-0.9082031,-0.5957031,-53.71951,-212.0122,60.60976
12:02.0,7.2225,-0.1147461,-0.8823242,-0.6030273,-60.06098,-208.1098,56.95122
12:02.0,7.22925,-0.0703125,-0.8540039,-0.597168,-66.21951,-208.1707,51.40244
12:02.1,7.236,-0.027832,-0.8266602,-0.5991211,-72.0122,-211.0366,45.36586
12:02.1,7.24275,0.0209961,-0.8129883,-0.5869141,-77.80488,-215.5488,39.69512
12:02.1,7.2495,0.0908203,-0.8110352,-0.5766602,-81.34147,-223.7805,33.96342
12:02.1,7.25625,0.137207,-0.8115234,-0.5732422,-83.71951,-232.5,28.23171
12:02.1,7.263,0.2163086,-0.8110352,-0.5800781,-87.07317,-239.3293,22.2561
12:02.1,7.26975,0.2729492,-0.8105469,-0.609375,-92.31708,-245.5488,16.89024
12:02.1,7.2765,0.2983398,-0.8242188,-0.6225586,-99.39024,-254.0244,11.46342
12:02.1,7.28325,0.2993164,-0.8535156,-0.6113281,-104.0244,-265.3049,7.560976
12:02.1,7.29,0.3168945,-0.8984375,-0.5947266,-105.9146,-271.5244,6.707317
12:02.1,7.29675,0.3828125,-0.9545898,-0.5209961,-109.8171,-283.1707,6.707317
12:02.1,7.3035,0.480957,-1.006348,-0.4350586,-108.3537,-287.3171,8.170732
12:02.1,7.31025,0.5561523,-1.040039,-0.355957,-104.3902,-285.5488,9.634147
12:02.1,7.317,0.5947266,-1.061035,-0.2915039,-102.2561,-286.5854,10.73171
12:02.1,7.32375,0.6015625,-1.072754,-0.2524414,-101.5244,-291.5854,11.82927
12:02.1,7.3305,0.5776367,-1.073242,-0.230957,-102.2561,-296.8293,13.47561
12:02.1,7.33725,0.5258789,-1.057617,-0.2104492,-103.6585,-297.9268,16.21951
12:02.1,7.344,0.4775391,-1.044434,-0.1616211,-105.4268,-293.9024,19.63415
12:02.1,7.35075,0.4570313,-1.037109,-0.1381836,-105.9756,-279.3293,22.56098
12:02.1,7.3575,0.4384766,-1.03418,-0.074707,-105.6098,-255.8537,24.5122
12:02.1,7.36425,0.425293,-1.052734,0.0039063,-100.9756,-225.6098,25.97561
12:02.1,7.371,0.4125977,-1.104492,0.0859375,-91.03659,-192.439,26.34146
12:02.1,7.37775,0.402832,-1.168945,0.1083984,-77.86585,-166.2805,24.26829
12:02.1,7.3845,0.418457,-1.209473,0.09375,-70.85366,-156.7683,22.07317
12:02.1,7.39125,0.4853516,-1.226563,0.0498047,-56.46342,-142.3171,16.64634
12:02.1,7.398,0.6040039,-1.212891,-0.0385742,-41.64634,-125.7317,11.28049
12:02.1,7.40475,0.7177734,-1.148926,-0.1733398,-30.85366,-106.5244,5.54878
12:02.1,7.4115,0.7841797,-1.066895,-0.2983398,-27.31707,-88.10976,-0.5487805
12:02.1,7.41825,0.8266602,-1.006348,-0.3461914,-26.15854,-72.5,-6.829268
12:02.1,7.425,0.8320313,-0.9731445,-0.331543,-18.35366,-56.34146,-12.68293
12:02.1,7.43175,0.7563477,-0.9282227,-0.387207,-10.42683,-33.17073,-16.21951
12:02.1,7.4385,0.6240234,-0.940918,-0.3994141,-14.93902,-11.52439,-15.54878
12:02.1,7.44525,0.5136719,-1.003906,-0.375,-22.62195,6.95122,-10.67073
12:02.1,7.452,0.4804688,-1.046875,-0.3623047,-28.78049,23.47561,-2.804878
12:02.1,7.45875,0.4643555,-1.132813,-0.3671875,-32.7439,40.4878,4.268293
12:02.1,7.4655,0.5083008,-1.193848,-0.4311523,-41.46342,64.63415,7.865854
12:02.1,7.47225,0.4975586,-1.197754,-0.4912109,-55.18293,90.12196,9.207317
12:02.1,7.479,0.3886719,-1.175293,-0.4350586,-65.42683,100.3049,8.719512
12:02.1,7.48575,0.2011719,-1.14209,-0.3256836,-68.84147,94.45123,8.841464
12:02.1,7.4925,0.0136719,-1.081543,-0.2915039,-70.67073,79.2683,10.85366
12:02.1,7.49925,-0.1894531,-0.980957,-0.4326172,-67.19512,90.06097,12.98781
12:02.1,7.506,-0.4243164,-0.9018555,-0.6230469,-70.2439,110.4268,11.82927
12:02.1,7.51275,-0.6499023,-0.8793945,-0.6293945,-83.29269,109.6951,11.21951
12:02.1,7.5195,-0.7900391,-0.9682617,-0.4296875,-89.63415,83.78049,8.780488
12:02.1,7.52625,-0.8198242,-1.099609,-0.1855469,-74.39024,44.45122,4.634146
12:02.1,7.533,-0.7587891,-1.208008,-0.0917969,-50.06098,-9.756098,-2.560976
12:02.1,7.53975,-0.6347656,-1.241699,-0.1889648,-25.12195,-67.13415,-11.76829
12:02.1,7.5465,-0.581543,-1.220215,-0.2495117,-15.06098,-104.0244,-21.70732
12:02.1,7.55325,-0.527832,-1.163086,-0.2460938,-14.81707,-121.2805,-26.89025
12:02.1,7.56,-0.5146484,-1.124023,-0.0898438,-10.18293,-130,-23.59756
12:02.1,7.56675,-0.4277344,-1.071777,-0.0039063,-3.292683,-136.0366,-15.79268
12:02.1,7.5735,-0.2700195,-1.004395,-0.09375,-3.170732,-141.8902,-8.536586
12:02.1,7.58025,-0.0703125,-0.9589844,-0.2133789,-7.134147,-144.2683,-5.731708
12:02.1,7.587,0.1118164,-0.965332,-0.2431641,-14.39024,-148.4756,-2.439024
12:02.1,7.59375,0.2529297,-0.9755859,-0.237793,-18.35366,-139.939,-1.097561
12:02.1,7.6005,0.3076172,-0.9985352,-0.1977539,-21.40244,-113.4756,-2.865854
12:02.1,7.60725,0.2524414,-1.033203,-0.1640625,-19.81707,-83.65854,-6.158537
12:02.1,7.614,0.1533203,-1.053223,-0.1147461,-17.19512,-67.2561,-8.292683
12:02.1,7.62075,0.0825195,-1.055664,-0.1074219,-16.15854,-57.68293,-8.04878
12:02.1,7.6275,0.0429688,-1.04541,-0.1430664,-17.80488,-44.02439,-7.317073
12:02.1,7.63425,0.0078125,-1.034668,-0.1567383,-20.12195,-35.91463,-7.560976
12:02.1,7.641,-0.0253906,-1.017578,-0.1762695,-21.95122,-34.63415,-7.682927
12:02.1,7.64775,-0.0517578,-1.015137,-0.1918945,-23.35366,-30.73171,-7.195122
12:02.1,7.6545,-0.1035156,-1.020996,-0.1870117,-24.93903,-26.64634,-5
12:02.1,7.66125,-0.1240234,-1.037598,-0.1757813,-25.60976,-22.37805,-1.402439
12:02.1,7.668,-0.1054688,-1.045898,-0.1977539,-27.86585,-17.07317,1.768293
12:02.1,7.67475,-0.0712891,-1.022949,-0.1972656,-30.97561,-12.19512,3.04878
12:02.1,7.6815,-0.0537109,-0.984375,-0.1552734,-32.92683,-9.756098,2.926829
12:02.1,7.68825,-0.0571289,-0.9638672,-0.1318359,-34.45122,-2.621951,2.073171
12:02.1,7.695,-0.0795898,-0.965332,-0.1450195,-34.20732,6.646342,0.1829268
12:02.1,7.70175,-0.0957031,-0.9848633,-0.1513672,-34.39024,13.53659,0
12:02.1,7.7085,-0.0825195,-0.9980469,-0.1762695,-34.2683,17.92683,1.219512
12:02.1,7.71525,-0.0366211,-0.9956055,-0.222168,-34.08537,22.0122,2.865854
12:02.1,7.722,0,-0.9853516,-0.2387695,-36.21951,29.69512,3.231707
12:02.1,7.72875,0.0068359,-0.9780273,-0.2519531,-38.65854,33.71951,2.682927
12:02.1,7.7355,-0.0146484,-0.9672852,-0.2504883,-41.28049,34.08537,0.7926829
12:02.1,7.74225,-0.0366211,-0.9692383,-0.2446289,-41.40244,36.09756,-1.402439
12:02.1,7.749,-0.0927734,-0.9716797,-0.262207,-39.32927,36.03659,-3.902439
12:02.1,7.75575,-0.1625977,-0.9746094,-0.2915039,-37.43903,31.89025,-5.853659
12:02.1,7.7625,-0.2124023,-0.9589844,-0.3100586,-38.65854,29.26829,-8.353659
12:02.1,7.76925,-0.2583008,-0.9609375,-0.2983398,-38.17073,21.40244,-10.48781
12:02.1,7.776,-0.2797852,-0.9702148,-0.2817383,-37.13415,16.28049,-11.15854
12:02.1,7.78275,-0.2861328,-0.9746094,-0.2714844,-35.4878,8.841464,-13.35366
12:02.1,7.7895,-0.2856445,-0.9746094,-0.2709961,-34.2683,3.170732,-15.36585
12:02.1,7.79625,-0.2578125,-0.9790039,-0.2758789,-34.39024,-4.512195,-15.85366
12:02.1,7.803,-0.2119141,-0.9819336,-0.2739258,-34.7561,-11.70732,-15.73171
12:02.1,7.80975,-0.1660156,-0.9790039,-0.2866211,-34.63415,-17.9878,-15.67073
12:02.1,7.8165,-0.1201172,-0.9770508,-0.2910156,-35.42683,-19.02439,-16.09756
12:02.1,7.82325,-0.1044922,-0.9736328,-0.293457,-35.18293,-16.21951,-16.40244
12:02.1,7.83,-0.0932617,-0.9589844,-0.2978516,-35.73171,-17.86585,-16.58537
12:02.1,7.83675,-0.0888672,-0.9658203,-0.296875,-35.85366,-21.70732,-17.0122
12:02.1,7.8435,-0.0888672,-0.9667969,-0.3051758,-35,-22.56098,-17.43902
12:02.1,7.85025,-0.0883789,-0.972168,-0.3120117,-35.73171,-17.68293,-17.31707
12:02.1,7.857,-0.0825195,-0.9785156,-0.3115234,-35.30488,-17.56098,-16.03658
12:02.1,7.86375,-0.0458984,-0.9711914,-0.3432617,-35.4878,-18.17073,-14.45122
12:02.1,7.8705,-0.0024414,-0.9501953,-0.3886719,-37.86586,-14.32927,-14.20732
12:02.1,7.87725,0.0170898,-0.9360352,-0.3994141,-38.90244,-11.52439,-14.39024
12:02.1,7.884,0.015625,-0.9194336,-0.3955078,-40.54878,-5.365854,-14.26829
12:02.1,7.89075,-0.0019531,-0.9072266,-0.4018555,-41.70732,1.890244,-14.57317
12:02.1,7.8975,-0.0463867,-0.8974609,-0.3852539,-44.02439,8.719512,-15.2439
12:02.1,7.90425,-0.097168,-0.9003906,-0.3603516,-46.03659,11.52439,-15.42683
12:02.2,7.911,-0.1259766,-0.9213867,-0.340332,-46.09756,10.97561,-14.5122
12:02.2,7.91775,-0.1420898,-0.953125,-0.3398438,-45.36586,8.04878,-13.71951
12:02.2,7.9245,-0.1508789,-0.9790039,-0.3173828,-45.06098,2.256098,-13.90244
12:02.2,7.93125,-0.1577148,-1.021973,-0.3041992,-43.17073,-5.670732,-14.93902
12:02.2,7.938,-0.1577148,-1.046387,-0.300293,-37.86586,-13.23171,-16.46342
12:02.2,7.94475,-0.1577148,-1.082031,-0.2944336,-33.41463,-19.32927,-17.19512
12:02.2,7.9515,-0.1430664,-1.10791,-0.2592773,-27.92683,-24.14634,-16.64634
12:02.2,7.95825,-0.1064453,-1.129883,-0.2314453,-21.95122,-27.62195,-15.42683
12:02.2,7.965,-0.0654297,-1.147461,-0.2119141,-16.52439,-31.76829,-13.96342
12:02.2,7.97175,-0.0268555,-1.15332,-0.1835938,-14.02439,-32.86586,-12.98781
12:02.2,7.9785,0.0019531,-1.154297,-0.1435547,-9.390244,-32.80488,-10.42683
12:02.2,7.98525,0.0317383,-1.152832,-0.1162109,-4.878049,-30.36585,-7.439024
12:02.2,7.992,0.0458984,-1.14209,-0.1313477,0.3658537,-25.48781,-5.365854
12:02.2,7.99875,0.0576172,-1.112305,-0.1689453,5.853659,-21.03659,-3.841464
12:02.2,8.0055,0.0732422,-1.071289,-0.2114258,8.719512,-15.67073,-3.353659
12:02.2,8.01225,0.0883789,-1.039551,-0.2583008,10.42683,-7.865854,-2.804878
12:02.2,8.019,0.1035156,-1.01416,-0.3027344,11.52439,-0.6097561,-2.073171
12:02.2,8.02575,0.1157227,-0.9770508,-0.3339844,11.09756,8.658537,-1.402439
12:02.2,8.0325,0.090332,-0.9501953,-0.3564453,9.512196,17.9878,-1.036585
12:02.2,8.03925,0.0722656,-0.940918,-0.3710938,9.695122,22.80488,-1.036585
12:02.2,8.046,0.0214844,-0.9311523,-0.4008789,10.79268,27.80488,-1.463415
12:02.2,8.05275,-0.0317383,-0.9296875,-0.4311523,11.58537,31.89025,-1.158537
12:02.2,8.0595,-0.0688477,-0.925293,-0.4428711,10.12195,34.93903,-0.5487805
12:02.2,8.06625,-0.0810547,-0.918457,-0.4423828,6.158537,32.62195,0.4268293
12:02.2,8.073,-0.0498047,-0.9296875,-0.4277344,4.268293,31.09756,0.6707317
12:02.2,8.07975,-0.0053711,-0.9370117,-0.4248047,3.902439,30.54878,0.8536586
12:02.2,8.0865,0.0390625,-0.9248047,-0.4472656,4.329268,33.47561,1.158537
12:02.2,8.09325,0.0864258,-0.9125977,-0.4467773,2.621951,37.80488,1.52439
12:02.2,8.1,0.1279297,-0.9003906,-0.4501953,0.1219512,42.37805,1.341463
12:02.2,8.10675,0.1396484,-0.9008789,-0.4399414,-3.536585,48.41463,0.1219512
12:02.2,8.1135,0.1054688,-0.9150391,-0.4121094,-6.890244,54.69512,-0.9756098
12:02.2,8.12025,0.0327148,-0.9448242,-0.3798828,-7.865854,59.93903,-1.341463
12:02.2,8.127,-0.0410156,-0.9697266,-0.3725586,-6.890244,62.43903,-1.158537
12:02.2,8.13375,-0.0712891,-0.9731445,-0.3774414,-6.52439,62.37805,-0.5487805
12:02.2,8.1405,-0.1108398,-0.9780273,-0.3837891,-7.073171,57.2561,-0.2439024
12:02.2,8.14725,-0.1147461,-0.9711914,-0.3725586,-8.231708,52.0122,0.1829268
12:02.2,8.154,-0.1005859,-0.9692383,-0.3417969,-8.292683,47.43903,-0.3048781
12:02.2,8.16075,-0.0927734,-0.9775391,-0.3203125,-7.012195,42.2561,-1.52439
12:02.2,8.1675,-0.1044922,-0.987793,-0.3129883,-6.707317,39.63415,-2.621951
12:02.2,8.17425,-0.1254883,-0.9985352,-0.2915039,-6.829268,35.36586,-3.414634
12:02.2,8.181,-0.1420898,-1.012695,-0.2724609,-5.54878,32.31707,-3.658537
12:02.2,8.18775,-0.1459961,-1.013672,-0.2749023,-4.146341,28.17073,-3.658537
12:02.2,8.1945,-0.1171875,-1.003418,-0.2905273,-5,23.17073,-3.414634
12:02.2,8.20125,-0.0771484,-1.003906,-0.2875977,-7.621952,21.70732,-3.231707
12:02.2,8.208,-0.0444336,-1.010742,-0.2695313,-7.926829,23.47561,-2.987805
12:02.2,8.21475,-0.0146484,-1.006836,-0.2783203,-4.329268,23.47561,-2.195122
12:02.2,8.2215,0.0141602,-0.9873047,-0.2729492,-3.231707,25,-1.341463
12:02.2,8.228251,0.0258789,-0.9799805,-0.2602539,-3.353659,28.35366,-0.9146342
12:02.2,8.235,0.0307617,-0.9848633,-0.2597656,-2.378049,30.97561,-0.4878049
12:02.2,8.24175,0.0307617,-0.9985352,-0.2670898,-0.7317073,34.2683,-0.1219512
12:02.2,8.2485,0.0131836,-1.007813,-0.2924805,-0.5487805,34.69512,0.5487805
12:02.2,8.25525,0.0043945,-1.007324,-0.2954102,-0.9756098,34.87805,1.707317
12:02.2,8.262,0.0053711,-1.005859,-0.3017578,-0.4268293,36.95122,2.560976
12:02.2,8.26875,0.0102539,-0.9916992,-0.3144531,-0.1219512,38.47561,2.926829
12:02.2,8.2755,0.0161133,-0.9775391,-0.3071289,-0.8536586,41.52439,2.987805
12:02.2,8.28225,0.0097656,-0.9741211,-0.2983398,-1.585366,43.53659,2.865854
12:02.2,8.289,0.0019531,-0.9711914,-0.315918,-2.317073,44.39024,2.439024
12:02.2,8.29575,-0.0102539,-0.9741211,-0.3232422,-4.207317,46.58537,2.378049
12:02.2,8.3025,-0.0317383,-0.9663086,-0.3256836,-4.45122,48.65854,2.073171
12:02.2,8.30925,-0.0473633,-0.953125,-0.3330078,-6.707317,48.71951,1.463415
12:02.2,8.316,-0.0605469,-0.9536133,-0.3261719,-10.18293,47.68293,0.9146342
12:02.2,8.32275,-0.0678711,-0.9575195,-0.3222656,-11.15854,47.62195,0.1829268
12:02.2,8.3295,-0.0717773,-0.9624023,-0.3237305,-10.60976,43.71951,0
12:02.2,8.33625,-0.0639648,-0.9692383,-0.3413086,-9.207317,35.30488,-0.3658537
12:02.2,8.343,-0.0561523,-0.9648438,-0.3466797,-9.085366,30.91463,-1.402439
12:02.2,8.34975,-0.0551758,-0.9614258,-0.3320313,-9.146341,30.30488,-2.621951
12:02.2,8.3565,-0.0664063,-0.9638672,-0.3242188,-9.756098,26.46342,-3.658537
12:02.2,8.36325,-0.0693359,-0.980957,-0.3154297,-9.939025,24.39024,-3.902439
12:02.2,8.37,-0.0751953,-0.9931641,-0.3051758,-9.45122,22.7439,-3.719512
12:02.2,8.37675,-0.0703125,-0.9936523,-0.3022461,-9.268292,22.56098,-3.780488
12:02.2,8.3835,-0.059082,-0.9863281,-0.3066406,-9.573171,21.28049,-3.414634
12:02.2,8.39025,-0.0410156,-0.9868164,-0.3056641,-10,17.80488,-2.987805
12:02.2,8.397,-0.0195313,-0.9926758,-0.3051758,-8.902439,14.63415,-2.926829
12:02.2,8.40375,0,-0.9887695,-0.3115234,-7.682927,14.20732,-2.926829
12:02.2,8.4105,0.0136719,-0.9829102,-0.3129883,-7.560976,15.2439,-3.04878
12:02.2,8.41725,0.0136719,-0.9863281,-0.3085938,-8.170732,17.86585,-2.743902
12:02.2,8.424,0.0151367,-0.9931641,-0.2949219,-8.902439,20,-2.378049
12:02.2,8.43075,0.0141602,-0.9946289,-0.2866211,-8.414635,21.28049,-2.317073
12:02.2,8.4375,0.0092773,-0.9941406,-0.2919922,-7.865854,21.89024,-2.256098
12:02.2,8.44425,0.0087891,-0.9892578,-0.2998047,-8.04878,24.69512,-2.073171
12:02.2,8.451,-0.0014648,-0.9868164,-0.3017578,-8.04878,29.57317,-1.890244
12:02.2,8.45775,-0.0161133,-0.9868164,-0.3046875,-8.536586,30.60976,-1.402439
12:02.2,8.4645,-0.027832,-0.9858398,-0.3041992,-8.658537,29.93903,-1.52439
12:02.2,8.47125,-0.034668,-0.9902344,-0.3007813,-10,28.65854,-1.402439
12:02.2,8.478,-0.0302734,-0.9882813,-0.2871094,-10.2439,29.32927,-0.9756098
12:02.2,8.48475,-0.0317383,-0.9858398,-0.28125,-10.18293,29.69512,-0.9756098
12:02.2,8.4915,-0.034668,-0.9858398,-0.2880859,-9.756098,28.78049,-1.52439
12:02.2,8.49825,-0.0395508,-0.9868164,-0.293457,-9.207317,27.0122,-2.073171
12:02.2,8.505,-0.0449219,-0.9907227,-0.2988281,-8.841464,24.81707,-2.378049
12:02.2,8.51175,-0.0478516,-0.9951172,-0.296875,-8.841464,23.71951,-2.5
12:02.2,8.5185,-0.0483398,-1.003906,-0.2880859,-8.353659,23.53659,-2.5
12:02.2,8.52525,-0.0512695,-0.9980469,-0.2939453,-7.865854,23.10976,-2.439024
12:02.2,8.532,-0.0400391,-0.9926758,-0.3125,-8.04878,22.80488,-2.256098
12:02.2,8.53875,-0.0302734,-0.9833984,-0.3271484,-8.536586,22.31707,-2.439024
12:02.2,8.5455,-0.0205078,-0.9746094,-0.3251953,-8.536586,22.68293,-2.5
12:02.2,8.55225,-0.0141602,-0.9663086,-0.328125,-9.268292,22.80488,-2.865854
12:02.2,8.559,-0.0039063,-0.9594727,-0.3266602,-10.06098,21.82927,-2.987805
12:02.2,8.56575,0.0009766,-0.9697266,-0.3256836,-11.52439,19.7561,-3.414634
12:02.2,8.5725,0.0014648,-0.984375,-0.3217773,-11.52439,20.73171,-3.963415
12:02.2,8.57925,-0.0004883,-0.9926758,-0.3139648,-10.79268,22.7439,-4.573171
12:02.3,8.586,-0.0112305,-0.9897461,-0.3129883,-10.30488,21.95122,-4.695122
12:02.3,8.59275,-0.0195313,-0.9838867,-0.3154297,-10.91463,20.06098,-4.817073
12:02.3,8.5995,-0.0161133,-0.9760742,-0.3164063,-10.67073,19.63415,-4.634146
12:02.3,8.60625,-0.0146484,-0.9804688,-0.3178711,-10.2439,20.67073,-4.390244
12:02.3,8.613,-0.0078125,-0.980957,-0.3261719,-9.02439,22.2561,-4.329268
12:02.3,8.61975,-0.0004883,-0.9824219,-0.331543,-8.597561,23.23171,-4.146341
12:02.3,8.6265,0.0058594,-0.9824219,-0.324707,-9.329268,23.90244,-4.085366
12:02.3,8.63325,0.0058594,-0.987793,-0.3105469,-8.841464,26.15854,-4.02439
12:02.3,8.64,0.0058594,-0.9892578,-0.3168945,-8.109756,28.65854,-3.597561
12:02.3,8.64675,-0.0009766,-0.9873047,-0.3344727,-8.719512,29.69512,-3.47561
12:02.3,8.6535,-0.0009766,-0.987793,-0.3378906,-9.512196,30.2439,-3.109756
12:02.3,8.66025,-0.0009766,-0.9858398,-0.3261719,-9.512196,30.79268,-2.865854
12:02.3,8.667,0.0048828,-0.9819336,-0.3203125,-9.329268,32.31707,-2.256098
12:02.3,8.67375,0.0136719,-0.9799805,-0.3232422,-9.207317,32.92683,-1.95122
12:02.3,8.6805,0.0209961,-0.9814453,-0.3256836,-9.085366,33.29268,-2.012195
12:02.3,8.68725,0.0249023,-0.9829102,-0.3300781,-8.963415,34.14634,-2.256098
12:02.3,8.694,0.0195313,-0.9863281,-0.3393555,-8.841464,34.81707,-2.195122
12:02.3,8.70075,0.015625,-0.987793,-0.3427734,-8.658537,36.03659,-2.012195
12:02.3,8.7075,0.0151367,-0.9858398,-0.34375,-8.231708,37.31707,-1.829268
12:02.3,8.71425,0.012207,-0.9814453,-0.3481445,-6.890244,36.34146,-1.707317
12:02.3,8.721,0.0161133,-0.9765625,-0.3427734,-5.97561,35.85366,-1.829268
12:02.3,8.72775,0.0180664,-0.9726563,-0.3500977,-4.573171,35.67073,-1.829268
12:02.3,8.7345,0.0239258,-0.9643555,-0.3603516,-5.060976,34.81707,-2.073171
12:02.3,8.74125,0.0239258,-0.96875,-0.3579102,-5.182927,34.02439,-2.317073
12:02.3,8.748,0.0244141,-0.965332,-0.3652344,-5.914634,33.84146,-2.5
12:02.3,8.75475,0.0161133,-0.9633789,-0.3706055,-6.341464,33.35366,-2.865854
12:02.3,8.7615,0.0170898,-0.9628906,-0.3720703,-8.109756,30.42683,-2.804878
12:02.3,8.76825,0.0141602,-0.9667969,-0.3657227,-9.512196,27.86585,-2.926829
12:02.3,8.775,0.0117188,-0.9726563,-0.3623047,-9.146341,27.37805,-3.292683
12:02.3,8.78175,0.0102539,-0.9741211,-0.3598633,-8.902439,26.15854,-3.414634
12:02.3,8.7885,0.0048828,-0.972168,-0.3608398,-8.658537,23.29268,-3.780488
12:02.3,8.79525,0.0078125,-0.96875,-0.3666992,-9.756098,19.81707,-3.963415
12:02.3,8.802,0.0141602,-0.9672852,-0.3754883,-10.12195,18.96342,-4.329268
12:02.3,8.80875,0.0043945,-0.9711914,-0.3608398,-11.15854,17.62195,-4.512195
12:02.3,8.8155,-0.0024414,-0.9750977,-0.3491211,-10.48781,15.73171,-4.512195
12:02.3,8.82225,-0.0039063,-0.9760742,-0.3432617,-9.45122,14.7561,-4.390244
12:02.3,8.829,-0.0039063,-0.9794922,-0.3408203,-8.658537,13.96342,-3.963415
12:02.3,8.83575,0.0019531,-0.9814453,-0.3413086,-7.682927,14.08537,-3.963415
12:02.3,8.8425,0.0112305,-0.9780273,-0.3447266,-8.353659,15.2439,-3.780488
12:02.3,8.84925,0.0205078,-0.9853516,-0.3427734,-8.231708,16.52439,-3.47561
12:02.3,8.856,0.0283203,-0.984375,-0.3388672,-8.231708,16.82927,-3.414634
12:02.3,8.86275,0.0395508,-0.9916992,-0.3286133,-7.926829,17.7439,-3.109756
12:02.3,8.8695,0.0458984,-0.9921875,-0.3251953,-7.682927,19.14634,-2.682927
12:02.3,8.87625,0.0546875,-0.9921875,-0.324707,-8.109756,19.87805,-2.378049
12:02.3,8.883,0.0454102,-0.9946289,-0.3242188,-8.04878,20.60976,-2.378049
12:02.3,8.88975,0.0375977,-0.9887695,-0.3271484,-7.743903,21.95122,-2.317073
12:02.3,8.8965,0.0302734,-0.9814453,-0.3276367,-8.109756,23.04878,-2.378049
12:02.3,8.90325,0.0283203,-0.9775391,-0.3349609,-8.231708,23.35366,-2.256098
12:02.3,8.91,0.019043,-0.9829102,-0.340332,-8.109756,22.68293,-2.195122
12:02.3,8.91675,0.0166016,-0.9887695,-0.3442383,-7.987805,21.82927,-2.439024
12:02.3,8.9235,0.0126953,-0.9873047,-0.3476563,-7.743903,21.64634,-2.256098
12:02.3,8.93025,0.0107422,-0.9833984,-0.3457031,-8.109756,22.19512,-1.95122
12:02.3,8.937,0.0073242,-0.9858398,-0.3393555,-8.597561,21.46342,-1.707317
12:02.3,8.94375,0.0029297,-0.9887695,-0.3383789,-7.926829,19.93902,-1.707317
12:02.3,8.9505,0.0024414,-0.9833984,-0.3378906,-7.743903,19.20732,-1.585366
12:02.3,8.95725,0,-0.9794922,-0.3359375,-6.95122,19.45122,-1.585366
12:02.3,8.964,-0.0043945,-0.9726563,-0.340332,-6.585366,20.12195,-1.646341
12:02.3,8.97075,-0.0087891,-0.9731445,-0.3461914,-6.707317,20.36585,-1.829268
12:02.3,8.9775,-0.0083008,-0.9736328,-0.3476563,-7.256098,19.5122,-1.707317
12:02.3,8.98425,0.0024414,-0.9775391,-0.3520508,-7.256098,18.65854,-1.52439
12:02.3,8.991,0.0102539,-0.9760742,-0.3540039,-8.04878,18.04878,-1.585366
12:02.3,8.99775,0.0136719,-0.9775391,-0.3486328,-8.536586,17.5,-2.134146
12:02.3,9.0045,0.0195313,-0.980957,-0.3427734,-8.536586,15.91463,-2.378049
12:02.3,9.01125,0.0205078,-0.9765625,-0.3422852,-7.987805,14.93902,-2.743902
12:02.3,9.018,0.0180664,-0.9790039,-0.3457031,-7.5,14.45122,-2.682927
12:02.3,9.02475,0.0161133,-0.9755859,-0.3486328,-7.621952,15,-2.5
12:02.3,9.0315,0.0195313,-0.9799805,-0.3393555,-7.439024,15.54878,-2.378049
12:02.3,9.03825,0.0195313,-0.980957,-0.3320313,-6.829268,16.40244,-2.134146
12:02.3,9.045,0.0263672,-0.984375,-0.3271484,-6.402439,16.89024,-1.95122
12:02.3,9.05175,0.0283203,-0.9819336,-0.3320313,-6.402439,17.13415,-1.890244
12:02.3,9.0585,0.0307617,-0.9848633,-0.3271484,-6.585366,18.17073,-1.646341
12:02.3,9.06525,0.0258789,-0.9848633,-0.3276367,-5.792683,17.9878,-1.585366
12:02.3,9.072001,0.0268555,-0.9819336,-0.3349609,-6.585366,17.07317,-1.402439
12:02.3,9.07875,0.0249023,-0.9853516,-0.3359375,-7.560976,17.80488,-1.158537
12:02.3,9.0855,0.0200195,-0.9902344,-0.3383789,-7.439024,18.53658,-0.7317073
12:02.3,9.09225,0.0185547,-0.9868164,-0.331543,-7.926829,19.20732,-0.8536586
12:02.3,9.099,0.0131836,-0.9882813,-0.3251953,-8.04878,19.5122,-1.158537
12:02.3,9.10575,0.0112305,-0.9829102,-0.3325195,-7.865854,19.39024,-0.9756098
12:02.3,9.1125,0.0112305,-0.9824219,-0.3310547,-8.170732,19.69512,-0.6707317
12:02.3,9.11925,0.0117188,-0.9785156,-0.328125,-7.987805,20.2439,-0.4878049
12:02.3,9.126,0.0078125,-0.9755859,-0.3334961,-7.621952,20.73171,-0.6097561
12:02.3,9.132751,0.0112305,-0.9755859,-0.3413086,-8.292683,21.34146,-0.7317073
12:02.3,9.1395,0.0048828,-0.9790039,-0.3354492,-8.04878,20.91463,-0.8536586
12:02.3,9.14625,-0.0019531,-0.9853516,-0.3305664,-7.804878,20.4878,-0.9146342
12:02.3,9.153,-0.0048828,-0.9804688,-0.3320313,-7.317073,19.7561,-1.341463
12:02.3,9.15975,-0.0092773,-0.9814453,-0.3349609,-6.829268,18.53658,-1.585366
12:02.3,9.1665,-0.0078125,-0.9829102,-0.3422852,-6.768293,16.89024,-1.402439
12:02.3,9.17325,-0.0048828,-0.9868164,-0.3413086,-6.585366,15.18293,-1.341463
12:02.3,9.18,-0.0009766,-0.9848633,-0.3359375,-5.914634,13.29268,-1.585366
12:02.3,9.18675,0.0043945,-0.9760742,-0.3486328,-5.487805,12.80488,-1.585366
12:02.3,9.1935,0.0107422,-0.9765625,-0.3505859,-6.646342,13.47561,-1.52439
12:02.3,9.20025,0.015625,-0.9814453,-0.3369141,-7.134147,13.23171,-1.585366
12:02.3,9.207,0.019043,-0.9819336,-0.3286133,-7.134147,13.29268,-1.158537
12:02.3,9.21375,0.0195313,-0.9819336,-0.3295898,-6.219512,14.57317,-1.463415
12:02.3,9.2205,0.0214844,-0.9750977,-0.3408203,-7.073171,14.7561,-1.52439
12:02.3,9.22725,0.0209961,-0.9711914,-0.3383789,-8.597561,14.93902,-1.341463
12:02.3,9.234,0.0234375,-0.980957,-0.3271484,-8.597561,16.52439,-1.341463
12:02.3,9.24075,0.019043,-0.9873047,-0.3237305,-8.231708,17.68293,-1.219512
12:02.3,9.2475,0.0175781,-0.9858398,-0.3271484,-8.231708,17.86585,-1.280488
12:02.4,9.25425,0.0234375,-0.9902344,-0.3330078,-8.170732,18.04878,-1.341463
12:02.4,9.261,0.0205078,-0.9941406,-0.3295898,-8.353659,17.37805,-1.158537
12:02.4,9.26775,0.0170898,-0.9912109,-0.3237305,-8.04878,17.13415,-1.097561
12:02.4,9.2745,0.0131836,-0.9882813,-0.3203125,-7.378049,17.13415,-1.097561
12:02.4,9.28125,0.0078125,-0.9848633,-0.3183594,-6.646342,16.95122,-0.7926829
12:02.4,9.288,0.0068359,-0.9824219,-0.3222656,-6.280488,17.07317,-0.7926829
12:02.4,9.29475,0.0078125,-0.9838867,-0.3251953,-6.158537,17.31707,-0.6097561
12:02.4,9.3015,0.0126953,-0.9814453,-0.3378906,-5.731708,17.92683,-0.5487805
12:02.4,9.30825,0.0151367,-0.9804688,-0.3520508,-5.487805,18.17073,-0.3658537
12:02.4,9.315,0.015625,-0.9790039,-0.362793,-6.097561,17.43902,-0.1829268
12:02.4,9.32175,0.0214844,-0.9785156,-0.3671875,-7.682927,14.87805,-0.4268293
12:02.4,9.3285,0.0283203,-0.9794922,-0.3461914,-8.231708,13.78049,-0.6707317
12:02.4,9.33525,0.0214844,-0.9785156,-0.3374023,-7.865854,13.41463,-0.9756098
12:02.4,9.342,0.0141602,-0.9785156,-0.3398438,-7.439024,13.47561,-0.9756098
12:02.4,9.34875,0.0107422,-0.9760742,-0.3388672,-7.439024,13.41463,-0.9756098
12:02.4,9.3555,0.0117188,-0.9790039,-0.3295898,-7.804878,13.04878,-0.7926829
12:02.4,9.36225,0.012207,-0.9785156,-0.3203125,-7.012195,13.47561,-0.6707317
12:02.4,9.369,0.0175781,-0.9731445,-0.3203125,-5.914634,14.45122,-0.5487805
12:02.4,9.37575,0.0200195,-0.9726563,-0.3261719,-5.853659,15.79268,-0.6707317
12:02.4,9.3825,0.0161133,-0.9760742,-0.3320313,-5.487805,16.95122,-0.7926829
12:02.4,9.38925,0.015625,-0.9794922,-0.3413086,-5.731708,17.43902,-0.7317073
12:02.4,9.396,0.0141602,-0.9824219,-0.347168,-6.036585,17.2561,-0.7926829
12:02.4,9.40275,0.0126953,-0.9858398,-0.34375,-6.707317,16.76829,-0.7317073
12:02.4,9.4095,0.0151367,-0.9897461,-0.3427734,-6.95122,16.09756,-0.7317073
12:02.4,9.41625,0.0107422,-0.9897461,-0.3461914,-7.5,15.85366,-0.5487805
12:02.4,9.423,0.0126953,-0.9916992,-0.3481445,-7.560976,15.97561,-0.4878049
12:02.4,9.42975,0.0092773,-0.9907227,-0.3427734,-7.621952,14.57317,-0.3658537
12:02.4,9.4365,0.0146484,-0.987793,-0.3217773,-7.5,13.17073,-0.3658537
12:02.4,9.44325,0.0131836,-0.9833984,-0.3129883,-6.890244,13.04878,-0.3658537
12:02.4,9.45,0.0146484,-0.9765625,-0.3144531,-6.158537,14.08537,-0.1829268
12:02.4,9.45675,0.0141602,-0.9736328,-0.3271484,-6.341464,15.54878,-0.2439024
12:02.4,9.4635,0.0214844,-0.9702148,-0.3359375,-6.707317,16.40244,-0.1219512
12:02.4,9.47025,0.0258789,-0.9736328,-0.3432617,-7.5,17.07317,-0.2439024
12:02.4,9.477,0.0234375,-0.9799805,-0.3378906,-7.865854,17.2561,-0.3048781
12:02.4,9.48375,0.0214844,-0.9790039,-0.3359375,-7.743903,16.34146,-0.5487805
12:02.4,9.4905,0.0092773,-0.9794922,-0.3354492,-7.317073,15.42683,-1.097561
12:02.4,9.49725,-0.003418,-0.9780273,-0.3344727,-7.317073,15.30488,-0.9146342
12:02.4,9.504,-0.0141602,-0.9833984,-0.3427734,-7.256098,15.36585,-0.6707317
12:02.4,9.51075,-0.015625,-0.9853516,-0.3398438,-7.682927,14.7561,-0.2439024
12:02.4,9.5175,-0.0170898,-0.9833984,-0.3310547,-7.804878,14.32927,0
12:02.4,9.52425,-0.0112305,-0.9838867,-0.3237305,-7.804878,13.96342,0.1829268
12:02.4,9.531,-0.0029297,-0.9833984,-0.3168945,-7.195122,13.53659,0.1219512
12:02.4,9.53775,0.0029297,-0.9833984,-0.3134766,-6.646342,13.10976,-0.2439024
12:02.4,9.5445,0.0083008,-0.9882813,-0.3105469,-6.52439,13.10976,-0.3048781
12:02.4,9.55125,0.0068359,-0.9814453,-0.3256836,-5.731708,13.17073,-0.4878049
12:02.4,9.558,0.0063477,-0.9765625,-0.3476563,-6.097561,13.65854,-0.6097561
12:02.4,9.56475,0.0009766,-0.9780273,-0.3632813,-7.012195,14.14634,-0.8536586
12:02.4,9.5715,0.003418,-0.9799805,-0.3564453,-7.987805,14.08537,-0.6707317
12:02.4,9.57825,0.0097656,-0.9829102,-0.3344727,-8.414635,13.71951,-0.5487805
12:02.4,9.585,0.0048828,-0.9804688,-0.3261719,-7.804878,13.17073,-0.7926829
12:02.4,9.59175,-0.0024414,-0.9770508,-0.3261719,-7.865854,12.2561,-0.7317073
12:02.4,9.5985,0.0004883,-0.980957,-0.331543,-8.170732,12.43902,-0.4268293
12:02.4,9.60525,0.0029297,-0.9794922,-0.331543,-8.963415,13.53659,-0.2439024
12:02.4,9.612,0.003418,-0.980957,-0.3344727,-8.597561,13.17073,0
12:02.4,9.61875,0.0073242,-0.984375,-0.3344727,-8.109756,12.7439,-0.2439024
12:02.4,9.6255,0.0063477,-0.9804688,-0.3330078,-7.743903,12.98781,-0.4268293
12:02.4,9.63225,0.0039063,-0.9785156,-0.3378906,-8.231708,13.17073,-0.7926829
12:02.4,9.639,-0.003418,-0.9790039,-0.3310547,-8.47561,12.92683,-0.8536586
12:02.4,9.64575,-0.0112305,-0.980957,-0.3334961,-8.47561,11.52439,-0.7926829
12:02.4,9.6525,-0.0117188,-0.9868164,-0.3383789,-8.47561,11.46342,-0.6097561
12:02.4,9.65925,-0.0112305,-0.9853516,-0.3452148,-8.902439,11.28049,-0.4878049
12:02.4,9.666,-0.0131836,-0.9868164,-0.3193359,-9.878049,10.30488,-0.4878049
12:02.4,9.67275,-0.0126953,-0.980957,-0.3139648,-9.634147,8.719512,-0.3658537
12:02.4,9.6795,-0.0112305,-0.9765625,-0.3271484,-9.45122,8.170732,-0.3658537
12:02.4,9.68625,-0.0043945,-0.9736328,-0.3334961,-10.06098,9.146341,-0.3048781
12:02.4,9.693,-0.0087891,-0.9790039,-0.3237305,-10.91463,10,-0.4878049
12:02.4,9.69975,-0.0141602,-0.9824219,-0.3154297,-10.67073,10.36585,-0.6097561
12:02.4,9.7065,-0.0161133,-0.9804688,-0.3164063,-10.12195,10.85366,-0.7317073
12:02.4,9.71325,-0.0234375,-0.9794922,-0.3339844,-9.756098,11.89024,-0.9756098
12:02.4,9.72,-0.0205078,-0.9794922,-0.3422852,-10,12.31707,-0.8536586
12:02.4,9.72675,-0.0131836,-0.984375,-0.3354492,-9.268292,12.31707,-0.9756098
12:02.4,9.7335,-0.0131836,-0.9863281,-0.3330078,-7.743903,12.31707,-0.6097561
12:02.4,9.74025,-0.0043945,-0.9770508,-0.3408203,-7.439024,12.31707,-0.6707317
12:02.4,9.747,0.0053711,-0.972168,-0.3452148,-7.439024,12.0122,-0.9146342
12:02.4,9.75375,0.012207,-0.9775391,-0.3500977,-7.378049,11.46342,-0.9756098
12:02.4,9.7605,0.0200195,-0.9755859,-0.3500977,-6.829268,11.58537,-1.585366
12:02.4,9.76725,0.0170898,-0.9697266,-0.3632813,-6.768293,11.76829,-1.890244
12:02.4,9.774,0.0146484,-0.9628906,-0.387207,-8.719512,11.09756,-2.134146
12:02.4,9.78075,0.0175781,-0.965332,-0.3686523,-12.07317,11.46342,-1.890244
12:02.4,9.7875,0.0141602,-0.9770508,-0.3330078,-12.56098,12.31707,-1.707317
12:02.4,9.79425,0.0097656,-0.9750977,-0.3061523,-10.91463,13.04878,-1.890244
12:02.4,9.801,0.0048828,-0.9702148,-0.3046875,-9.207317,14.20732,-2.256098
12:02.4,9.80775,-0.003418,-0.9633789,-0.3237305,-9.085366,16.15854,-2.256098
12:02.4,9.8145,-0.0083008,-0.9628906,-0.3457031,-9.817074,17.07317,-2.439024
12:02.4,9.82125,-0.0131836,-0.9765625,-0.3525391,-10.42683,17.07317,-2.134146
12:02.4,9.828,-0.0131836,-0.9868164,-0.3491211,-10.2439,15.60976,-1.890244
12:02.4,9.83475,-0.012207,-0.9902344,-0.3388672,-9.756098,14.39024,-1.95122
12:02.4,9.8415,-0.0117188,-0.9863281,-0.328125,-9.085366,12.62195,-2.5
12:02.4,9.84825,-0.0166016,-0.9829102,-0.3208008,-8.353659,12.86585,-2.804878
12:02.4,9.855,-0.0253906,-0.984375,-0.3188477,-8.04878,13.65854,-2.926829
12:02.4,9.86175,-0.0258789,-0.9848633,-0.3208008,-7.317073,14.57317,-2.621951
12:02.4,9.8685,-0.019043,-0.9833984,-0.3266602,-6.829268,14.39024,-2.439024
12:02.4,9.87525,-0.0083008,-0.9863281,-0.3320313,-6.890244,14.39024,-2.256098
12:02.4,9.882,-0.003418,-0.9848633,-0.3359375,-7.073171,14.57317,-2.317073
12:02.4,9.88875,0.0029297,-0.9804688,-0.3427734,-7.560976,14.81707,-2.256098
12:02.4,9.8955,0.0063477,-0.9814453,-0.3271484,-8.292683,14.39024,-2.5
12:02.4,9.90225,0.0058594,-0.9799805,-0.328125,-8.292683,12.92683,-2.743902
12:02.4,9.909,0.0073242,-0.9741211,-0.3432617,-9.878049,12.37805,-2.682927
12:02.4,9.915751,0.0014648,-0.9794922,-0.347168,-10.42683,11.70732,-2.560976
12:02.4,9.9225,-0.0063477,-0.9799805,-0.3447266,-9.878049,11.28049,-2.560976
12:02.4,9.92925,-0.0083008,-0.9775391,-0.3330078,-8.902439,12.0122,-2.560976
12:02.5,9.936,-0.0078125,-0.9731445,-0.347168,-8.47561,12.37805,-2.378049
12:02.5,9.94275,-0.0014648,-0.9731445,-0.3383789,-9.02439,12.43902,-2.134146
12:02.5,9.9495,-0.0029297,-0.9760742,-0.3325195,-8.719512,13.41463,-2.317073
12:02.5,9.95625,-0.0024414,-0.9755859,-0.3417969,-7.926829,13.59756,-2.256098
12:02.5,9.963,0.0004883,-0.9741211,-0.3505859,-8.292683,14.08537,-2.195122
12:02.5,9.96975,0.0039063,-0.9750977,-0.3466797,-9.207317,14.39024,-2.317073
12:02.5,9.976501,0.003418,-0.9755859,-0.3427734,-9.634147,13.41463,-2.256098
12:02.5,9.98325,0.0063477,-0.9726563,-0.3320313,-9.756098,11.70732,-2.378049
12:02.5,9.99,0.0009766,-0.9692383,-0.3442383,-10.48781,10.36585,-2.682927
12:02.5,9.99675,-0.003418,-0.9711914,-0.3535156,-11.40244,10.97561,-3.292683
12:02.5,10.0035,-0.0014648,-0.9785156,-0.3554688,-11.89024,13.23171,-3.292683
12:02.5,10.01025,-0.015625,-0.9780273,-0.3354492,-11.70732,13.78049,-2.987805
12:02.5,10.017,-0.0180664,-0.9794922,-0.3237305,-10.91463,12.98781,-2.804878
12:02.5,10.02375,-0.0146484,-0.972168,-0.3369141,-10.85366,11.64634,-2.621951
12:02.5,10.0305,-0.0117188,-0.972168,-0.3432617,-10.06098,11.58537,-2.682927
12:02.5,10.03725,-0.0117188,-0.9643555,-0.34375,-9.756098,11.46342,-3.170732
12:02.5,10.044,-0.012207,-0.9672852,-0.3330078,-10.60976,11.52439,-3.47561
12:02.5,10.05075,-0.0068359,-0.9760742,-0.3310547,-11.52439,11.76829,-3.414634
12:02.5,10.0575,-0.003418,-0.9814453,-0.34375,-11.21951,12.19512,-3.292683
12:02.5,10.06425,-0.0004883,-0.9824219,-0.3549805,-10.97561,10.60976,-3.658537
12:02.5,10.071,-0.0043945,-0.9785156,-0.3662109,-11.15854,9.573171,-4.085366
12:02.5,10.07775,-0.0126953,-0.9746094,-0.3779297,-11.40244,9.390244,-4.45122
12:02.5,10.0845,-0.0151367,-0.9697266,-0.3730469,-12.92683,7.560976,-4.207317
12:02.5,10.09125,-0.0146484,-0.9702148,-0.3569336,-13.47561,6.95122,-4.02439
12:02.5,10.098,-0.0136719,-0.9692383,-0.3515625,-12.31707,7.926829,-3.719512
12:02.5,10.10475,-0.0083008,-0.9589844,-0.3447266,-11.34146,8.536586,-3.353659
12:02.5,10.1115,-0.0004883,-0.9501953,-0.3520508,-11.28049,8.536586,-3.414634
12:02.5,10.11825,0.0102539,-0.9448242,-0.3569336,-12.07317,8.963415,-3.780488
12:02.5,10.125,0.0141602,-0.9482422,-0.3657227,-13.78049,9.756098,-4.512195
12:02.5,10.13175,0.015625,-0.9584961,-0.3798828,-14.08537,10.97561,-4.939024
12:02.5,10.1385,0.0073242,-0.9667969,-0.3823242,-15.30488,12.68293,-5.54878
12:02.5,10.14525,0.0014648,-0.9799805,-0.3779297,-15.36585,11.03659,-5.670732
12:02.5,10.152,0.0014648,-0.9741211,-0.3920898,-15.06098,7.195122,-5.670732
12:02.5,10.15875,-0.0087891,-0.9750977,-0.378418,-15.06098,4.695122,-6.036585
12:02.5,10.1655,-0.0234375,-0.9746094,-0.3530273,-13.41463,5.182927,-6.463415
12:02.5,10.17225,-0.0385742,-0.9736328,-0.3208008,-12.56098,4.756098,-6.52439
12:02.5,10.179,-0.0424805,-0.9863281,-0.315918,-12.13415,3.963415,-6.097561
12:02.5,10.18575,-0.0297852,-1.000977,-0.3364258,-10.60976,3.841464,-5.182927
12:02.5,10.1925,-0.0219727,-1.004395,-0.3374023,-9.573171,6.829268,-4.512195
12:02.5,10.19925,-0.0161133,-1.005371,-0.3398438,-8.414635,8.963415,-4.085366
12:02.5,10.206,0.0009766,-1.001465,-0.3359375,-7.439024,9.817074,-4.207317
12:02.5,10.21275,0.012207,-0.9931641,-0.3447266,-6.768293,9.02439,-4.695122
12:02.5,10.2195,0.0205078,-0.9799805,-0.3740234,-7.195122,8.780488,-4.695122
12:02.5,10.22625,0.0234375,-0.9833984,-0.3652344,-7.560976,10.06098,-4.695122
12:02.5,10.233,0.0151367,-0.9799805,-0.3364258,-7.317073,12.13415,-4.207317
12:02.5,10.23975,0.0136719,-0.9697266,-0.3212891,-6.280488,11.95122,-3.841464
12:02.5,10.2465,0.0083008,-0.9550781,-0.3325195,-7.439024,11.03659,-3.536585
12:02.5,10.25325,0.0024414,-0.9467773,-0.3608398,-9.207317,10.30488,-3.780488
12:02.5,10.26,-0.0024414,-0.9462891,-0.3666992,-11.15854,13.65854,-3.719512
12:02.5,10.26675,-0.0166016,-0.9560547,-0.3598633,-11.34146,19.20732,-3.963415
12:02.5,10.2735,-0.0297852,-0.9536133,-0.3603516,-10.18293,18.53658,-4.45122
12:02.5,10.28025,-0.0258789,-0.956543,-0.3603516,-10.54878,13.41463,-5
12:02.5,10.287,-0.0239258,-0.9780273,-0.3530273,-9.45122,10.67073,-5.54878
12:02.5,10.29375,-0.0273438,-0.9892578,-0.347168,-6.707317,8.597561,-6.280488
12:02.5,10.3005,-0.0395508,-1.002441,-0.3378906,-5.731708,7.378049,-7.012195
12:02.5,10.30725,-0.0493164,-1.016113,-0.3232422,-4.939024,6.341464,-6.95122
12:02.5,10.314,-0.0571289,-1.021973,-0.3154297,-3.292683,3.536585,-6.463415
12:02.5,10.32075,-0.0522461,-1.017578,-0.3129883,-3.04878,-0.1829268,-5.853659
12:02.5,10.3275,-0.0371094,-1.000488,-0.3164063,-3.109756,-1.158537,-5.609756
12:02.5,10.33425,-0.0185547,-0.9799805,-0.3305664,-3.536585,-1.646341,-5.365854
12:02.5,10.341,-0.0141602,-0.9628906,-0.3427734,-3.597561,1.280488,-5.365854
12:02.5,10.34775,-0.0117188,-0.9526367,-0.347168,-3.04878,3.963415,-5.609756
12:02.5,10.3545,-0.0004883,-0.9443359,-0.3520508,-3.414634,5.609756,-5.54878
12:02.5,10.36125,0.0102539,-0.9501953,-0.3544922,-4.756098,7.256098,-5.670732
12:02.5,10.368,0.0102539,-0.9609375,-0.3647461,-5.487805,7.987805,-6.036585
12:02.5,10.37475,0.0029297,-0.9760742,-0.359375,-6.707317,8.170732,-6.402439
12:02.5,10.3815,-0.0107422,-0.9873047,-0.3393555,-7.5,9.268292,-6.585366
12:02.5,10.38825,-0.0141602,-0.9868164,-0.3354492,-7.195122,9.146341,-6.646342
12:02.5,10.395,-0.0224609,-0.9873047,-0.3320313,-8.04878,7.743903,-7.073171
12:02.5,10.40175,-0.019043,-1,-0.3129883,-8.47561,7.317073,-7.439024
12:02.5,10.4085,-0.0239258,-1.006836,-0.2973633,-7.682927,7.5,-7.439024
12:02.5,10.41525,-0.0185547,-1.003906,-0.2963867,-5.54878,10.06098,-7.378049
12:02.5,10.422,-0.0195313,-0.9775391,-0.3212891,-5.304878,12.37805,-7.439024
12:02.5,10.42875,-0.0258789,-0.9443359,-0.34375,-6.585366,16.52439,-7.378049
12:02.5,10.4355,-0.0341797,-0.9311523,-0.3320313,-8.902439,19.93902,-7.378049
12:02.5,10.44225,-0.0527344,-0.9370117,-0.3276367,-9.939025,23.10976,-7.621952
12:02.5,10.449,-0.0576172,-0.9423828,-0.3217773,-11.64634,21.95122,-7.256098
12:02.5,10.45575,-0.0512695,-0.9521484,-0.3261719,-12.13415,22.43902,-7.195122
12:02.5,10.4625,-0.0527344,-0.9575195,-0.3251953,-12.62195,25.97561,-8.353659
12:02.5,10.46925,-0.0693359,-0.9619141,-0.3017578,-13.10976,25.42683,-10.73171
12:02.5,10.476,-0.090332,-0.9785156,-0.2675781,-13.17073,20.91463,-12.13415
12:02.5,10.48275,-0.1020508,-0.9848633,-0.2529297,-12.80488,17.92683,-12.98781
12:02.5,10.4895,-0.1049805,-0.9897461,-0.2485352,-12.86585,18.29268,-13.53659
12:02.5,10.49625,-0.1137695,-1.003418,-0.2333984,-12.68293,18.96342,-14.08537
12:02.5,10.503,-0.1152344,-1.016113,-0.2133789,-11.52439,19.02439,-14.20732
12:02.5,10.50975,-0.1069336,-1.023438,-0.1938477,-10.12195,19.02439,-14.7561
12:02.5,10.5165,-0.0952148,-1.015625,-0.1743164,-9.207317,19.7561,-15
12:02.5,10.52325,-0.0893555,-1.010254,-0.1469727,-8.719512,20.30488,-15.2439
12:02.5,10.53,-0.0908203,-1.023926,-0.1044922,-7.5,20.73171,-15.91463
12:02.5,10.53675,-0.1030273,-1.041992,-0.0615234,-5.182927,20.73171,-16.03658
12:02.5,10.5435,-0.1191406,-1.060547,-0.0297852,-2.195122,21.28049,-15.79268
12:02.5,10.55025,-0.1318359,-1.07959,-0.0019531,1.341463,23.96342,-15.30488
12:02.5,10.557,-0.1572266,-1.096191,0.0263672,5.426829,28.04878,-14.39024
12:02.5,10.56375,-0.1796875,-1.120605,0.074707,9.573171,30.79268,-13.23171
12:02.5,10.5705,-0.2202148,-1.155762,0.140625,15.18293,30.06098,-11.03659
12:02.5,10.57725,-0.2563477,-1.175293,0.1967773,22.80488,27.0122,-7.012195
12:02.5,10.584,-0.2680664,-1.180664,0.2241211,31.28049,22.5,-1.95122
12:02.5,10.59075,-0.2788086,-1.181152,0.2768555,39.39024,18.04878,1.890244
12:02.5,10.5975,-0.2963867,-1.18457,0.3359375,48.65854,9.329268,4.878049
12:02.5,10.60425,-0.3115234,-1.185059,0.4042969,60.36586,-4.390244,7.317073
12:02.6,10.611,-0.3320313,-1.17334,0.456543,72.80488,-21.03659,9.939025
12:02.6,10.61775,-0.359375,-1.164551,0.4892578,78.65854,-29.45122,11.21951
12:02.6,10.6245,-0.3842773,-1.162598,0.5,89.69512,-43.90244,14.39024
12:02.6,10.63125,-0.4052734,-1.159668,0.4960938,99.32927,-53.17073,17.7439
12:02.6,10.638,-0.4130859,-1.164551,0.4536133,107.8659,-55.2439,20.91463
12:02.6,10.64475,-0.4052734,-1.156738,0.3676758,112.9878,-50.60976,24.93903
12:02.6,10.6515,-0.3598633,-1.152344,0.2172852,114.3293,-39.20732,30.06098
12:02.6,10.65825,-0.2929688,-1.178711,0.0478516,112.8049,-19.08537,35
12:02.6,10.665,-0.2270508,-1.24707,-0.0942383,113.9634,6.036585,37.9878
12:02.6,10.67175,-0.1650391,-1.317871,-0.2211914,119.0244,16.70732,40.36586
12:02.6,10.6785,-0.0522461,-1.382813,-0.3300781,125.6707,-3.353659,42.56098
12:02.6,10.68525,0.0224609,-1.405762,-0.3852539,131.7073,-54.39024,40.18293
12:02.6,10.692,0.1572266,-1.45459,-0.4282227,130.7317,-119.0854,33.59756
12:02.6,10.69875,0.2329102,-1.496582,-0.3642578,132.1342,-175.5488,26.28049
12:02.6,10.7055,0.2548828,-1.508789,-0.2905273,141.7683,-203.1707,19.69512
12:02.6,10.71225,0.2333984,-1.472656,-0.25,152.0122,-187.439,12.56098
12:02.6,10.719,0.1772461,-1.398438,-0.125,153.8415,-167.439,9.268292
12:02.6,10.72575,0.1259766,-1.332031,0.1000977,153.3537,-121.5244,5.304878
12:02.6,10.7325,0.1411133,-1.310059,0.2573242,150.9756,-86.21951,6.585366
12:02.6,10.73925,0.2607422,-1.326172,0.2402344,145.9756,-71.28049,10.18293
12:02.6,10.746,0.3901367,-1.341797,0.1542969,138.5366,-62.5,14.81707
12:02.6,10.75275,0.4658203,-1.350586,0.1176758,134.3902,-40.54878,21.70732
12:02.6,10.7595,0.456543,-1.318848,0.0908203,136.4634,-12.07317,26.15854
12:02.6,10.76625,0.3574219,-1.239258,0.0527344,139.3293,11.34146,27.5
12:02.6,10.773,0.2099609,-1.150391,0.0556641,137.6829,29.69512,26.28049
